"Time (s)","Gyroscope x (rad/s)","Gyroscope y (rad/s)","Gyroscope z (rad/s)"
2.059791600E-2,1.612684280E-1,-3.017674387E-1,-3.726277873E-2
2.256680000E-2,1.655444801E-1,-2.999348342E-1,-3.604105115E-2
2.460133900E-2,1.753183305E-1,-2.932153046E-1,-3.970624134E-2
2.667164600E-2,1.857030392E-1,-2.864958048E-1,-3.543018550E-2
2.874418500E-2,1.905899495E-1,-2.822197378E-1,-3.665191308E-2
3.070687700E-2,1.960877478E-1,-2.718350291E-1,-3.848451003E-2
3.270710800E-2,2.003637999E-1,-2.614503205E-1,-2.993239649E-2
3.477587700E-2,2.028072625E-1,-2.559525371E-1,-3.054326214E-2
3.680980000E-2,2.070833147E-1,-2.406809032E-1,-2.932153270E-2
3.892130000E-2,2.083050460E-1,-2.254092693E-1,-2.504547499E-2
4.091364600E-2,2.119702399E-1,-2.144137025E-1,-2.443460934E-2
4.298256900E-2,2.131919712E-1,-1.991420686E-1,-2.443460934E-2
4.501683800E-2,2.168571651E-1,-1.795943826E-1,-2.138028294E-2
4.708518500E-2,2.125810981E-1,-1.716531366E-1,-2.199114859E-2
4.911933800E-2,2.156354338E-1,-1.539380401E-1,-2.382374369E-2
5.114449200E-2,2.162462920E-1,-1.331686229E-1,-2.382374369E-2
5.314383800E-2,2.144137025E-1,-1.264491081E-1,-2.565634064E-2
5.521314600E-2,2.131919712E-1,-1.062905490E-1,-3.359758854E-2
5.724668500E-2,2.125810981E-1,-9.224065393E-2,-3.115412779E-2
5.935887700E-2,2.119702399E-1,-8.491026610E-2,-3.359758854E-2
6.135049200E-2,2.089159191E-1,-7.269296050E-2,-3.665191308E-2
6.341918500E-2,2.046398520E-1,-6.475171447E-2,-3.481931984E-2
6.545333800E-2,1.997529417E-1,-5.864306539E-2,-3.909537569E-2
6.752241500E-2,2.003637999E-1,-5.681046844E-2,-3.787364438E-2
6.959483800E-2,1.966986060E-1,-5.375614017E-2,-3.848451003E-2
7.155868500E-2,1.863138974E-1,-5.619960278E-2,-3.909537569E-2
7.355822300E-2,1.832595766E-1,-5.681046844E-2,-4.092797264E-2
7.562706900E-2,1.753183305E-1,-6.169738993E-2,-3.726277873E-2
7.766214600E-2,1.667662114E-1,-6.902777404E-2,-3.848451003E-2
7.977364600E-2,1.612684280E-1,-7.574728876E-2,-3.726277873E-2
8.176560800E-2,1.508837193E-1,-8.491026610E-2,-3.298672289E-2
8.383483800E-2,1.429424733E-1,-9.712757170E-2,-3.359758854E-2
8.586956900E-2,1.411098689E-1,-1.044579595E-1,-3.176499158E-2
8.793918400E-2,1.343903542E-1,-1.233947799E-1,-2.687807009E-2
8.997449200E-2,1.301143020E-1,-1.386664063E-1,-2.932153270E-2
9.199876100E-2,1.258382350E-1,-1.466076523E-1,-2.260201424E-2
9.399968400E-2,1.246165112E-1,-1.624901593E-1,-1.832595654E-2
9.606895400E-2,1.178969890E-1,-1.753183305E-1,-2.260201424E-2
9.810353100E-2,1.160643995E-1,-1.826487035E-1,-1.771509275E-2
1.002161080E-1,1.123992056E-1,-1.924225539E-1,-1.954768784E-2
1.022075310E-1,1.117883399E-1,-2.064724565E-1,-2.076941915E-2
1.042775310E-1,1.075122803E-1,-2.174680233E-1,-2.076941915E-2
1.063116840E-1,1.050688252E-1,-2.211332172E-1,-2.138028294E-2
1.083810690E-1,1.056796908E-1,-2.327396572E-1,-2.626720630E-2
1.104542610E-1,1.020144969E-1,-2.437352389E-1,-2.443460934E-2
1.124183000E-1,1.020144969E-1,-2.486221492E-1,-2.626720630E-2
1.144186460E-1,9.957103431E-2,-2.602286041E-1,-2.504547499E-2
1.164875310E-1,9.773843735E-2,-2.718350291E-1,-2.993239649E-2
1.185229150E-1,9.529497474E-2,-2.748893499E-1,-3.481931984E-2
1.206386460E-1,9.712757170E-2,-2.846632004E-1,-3.481931984E-2
1.226266840E-1,9.712757170E-2,-2.926044464E-1,-3.848451003E-2
1.246955300E-1,9.346238524E-2,-2.962696552E-1,-4.214970022E-2
1.267306070E-1,9.468411654E-2,-3.023782969E-1,-4.581489414E-2
1.287995690E-1,1.007927656E-1,-3.029891551E-1,-5.253441259E-2
1.308345300E-1,1.001819000E-1,-3.066543639E-1,-5.681046844E-2
1.328589150E-1,1.056796908E-1,-3.090978265E-1,-6.291911751E-2
1.350778380E-1,1.130100712E-1,-3.090978265E-1,-6.780604273E-2
1.369150300E-1,1.154535338E-1,-3.042109013E-1,-7.208210230E-2
1.389154150E-1,1.203404516E-1,-3.042109013E-1,-7.696902007E-2
1.410323380E-1,1.264491081E-1,-3.054326177E-1,-7.269296050E-2
1.430201840E-1,1.295034289E-1,-3.048217595E-1,-7.635815442E-2
1.450893000E-1,1.380555481E-1,-3.097086847E-1,-6.780604273E-2
1.471240690E-1,1.411098689E-1,-3.127630055E-1,-6.841690838E-2
1.491929150E-1,1.453859210E-1,-3.152064681E-1,-6.780604273E-2
1.512656460E-1,1.417207420E-1,-3.170390725E-1,-6.719517708E-2
1.532303770E-1,1.453859210E-1,-3.237585723E-1,-6.902777404E-2
1.552301070E-1,1.612684280E-1,-3.500257730E-1,-7.880161703E-2
1.572988770E-1,1.667662114E-1,-3.701843321E-1,-7.880161703E-2
1.593337610E-1,1.918116808E-1,-4.086688459E-1,-8.491026610E-2
1.614505300E-1,2.028072625E-1,-4.312708676E-1,-8.979719132E-2
1.634375300E-1,2.113593817E-1,-4.386012554E-1,-8.918632567E-2
1.655063000E-1,2.150245607E-1,-4.495968223E-1,-8.979719132E-2
1.675411070E-1,2.186897546E-1,-4.630358517E-1,-9.712757170E-2
1.696102230E-1,2.211332172E-1,-4.709770977E-1,-9.529497474E-2
1.716443760E-1,2.211332172E-1,-4.893030524E-1,-9.712757170E-2
1.736680300E-1,2.156354338E-1,-5.137376785E-1,-1.014036313E-1
1.756675300E-1,2.150245607E-1,-5.235115290E-1,-9.651670605E-2
1.777366460E-1,2.107485086E-1,-5.424483418E-1,-9.468411654E-2
1.797703000E-1,2.076941878E-1,-5.619960427E-1,-9.468411654E-2
1.818876460E-1,2.089159191E-1,-5.699372888E-1,-9.407325089E-2
1.838744920E-1,2.095267773E-1,-5.845980644E-1,-9.040805697E-2
1.859432230E-1,2.119702399E-1,-5.992587805E-1,-9.040805697E-2
1.879787990E-1,2.113593817E-1,-6.029239893E-1,-8.918632567E-2
1.900476070E-1,2.131919712E-1,-6.133087277E-1,-8.735372871E-2
1.921196840E-1,2.162462920E-1,-6.200281978E-1,-9.407325089E-2
1.940815690E-1,2.205223590E-1,-6.273586154E-1,-9.407325089E-2
1.960816840E-1,2.205223590E-1,-6.316346526E-1,-1.001819000E-1
1.981494920E-1,2.309070677E-1,-6.352998614E-1,-1.069014147E-1
2.001841840E-1,2.345722616E-1,-6.407976151E-1,-1.142318025E-1
2.022992990E-1,2.376265824E-1,-6.426302195E-1,-1.209513173E-1
2.042863760E-1,2.400700450E-1,-6.469063163E-1,-1.331686229E-1
2.063549530E-1,2.431243658E-1,-6.432411075E-1,-1.423316002E-1
2.083887220E-1,2.455678284E-1,-6.395758986E-1,-1.508837193E-1
2.104574920E-1,2.400700450E-1,-6.291912198E-1,-1.618792862E-1
2.124916460E-1,2.315179259E-1,-6.175847650E-1,-1.722639948E-1
2.145149920E-1,2.290744632E-1,-6.065891981E-1,-1.808161139E-1
2.165141070E-1,2.131919712E-1,-5.894849896E-1,-1.887573600E-1
2.185825690E-1,1.912008226E-1,-5.674937963E-1,-1.881465018E-1
2.206170300E-1,1.795943826E-1,-5.558874011E-1,-1.930334121E-1
2.227332220E-1,1.472185254E-1,-5.314527750E-1,-1.918116808E-1
2.247198380E-1,1.130100712E-1,-5.106833577E-1,-1.838704348E-1
2.267884150E-1,9.162978828E-2,-5.002986193E-1,-1.844813079E-1
2.288223380E-1,5.131268129E-2,-4.807509482E-1,-1.728748679E-1
2.308912220E-1,1.221730467E-2,-4.679227769E-1,-1.661553532E-1
2.329642610E-1,-2.993239649E-2,-4.532620013E-1,-1.472185254E-1
2.349278760E-1,-4.825835302E-2,-4.465425014E-1,-1.350012124E-1
2.369266070E-1,-8.246681094E-2,-4.300491214E-1,-1.166752651E-1
2.389954150E-1,-1.093448773E-1,-4.172209501E-1,-9.346238524E-2
2.410297990E-1,-1.233947799E-1,-4.129449129E-1,-8.246681094E-2
2.431466070E-1,-1.472185254E-1,-4.086688459E-1,-6.902777404E-2
2.451338380E-1,-1.655444801E-1,-4.129449129E-1,-5.009094998E-2
2.472029530E-1,-1.759291887E-1,-4.202753007E-1,-4.092797264E-2
2.492523380E-1,-2.003637999E-1,-4.495968223E-1,-3.481931984E-2
2.513063760E-1,-2.302961946E-1,-5.119050741E-1,-2.321287990E-2
2.533406450E-1,-2.535090744E-1,-5.601634383E-1,-2.015855350E-2
2.553654530E-1,-3.011565804E-1,-6.811147332E-1,-1.771509275E-2
2.573652220E-1,-3.463605940E-1,-7.959573865E-1,-9.773843922E-3
2.594349150E-1,-3.591887653E-1,-8.393288255E-1,-1.832595794E-3
2.614696840E-1,-3.799581826E-1,-8.906415105E-1,6.719517522E-3
2.635860680E-1,-3.854559660E-1,-9.144652486E-1,2.382374369E-2
2.655727990E-1,-3.830125034E-1,-9.211847782E-1,3.176499158E-2
2.676422990E-1,-3.683517575E-1,-9.279043078E-1,3.970624134E-2
2.696766070E-1,-3.445279896E-1,-9.236282706E-1,5.192354694E-2
2.717459150E-1,-3.145956099E-1,-9.114109278E-1,6.047565863E-2
2.738183760E-1,-2.950479090E-1,-8.973610401E-1,5.742133409E-2
2.757816070E-1,-2.583959997E-1,-8.655960560E-1,6.352998316E-2
2.777813760E-1,-2.223549485E-1,-8.228355050E-1,6.291911751E-2
2.798509530E-1,-2.015855312E-1,-8.014551997E-1,5.803219974E-2
2.818854150E-1,-1.637118906E-1,-7.513642311E-1,5.070181563E-2
2.840022220E-1,-1.313360333E-1,-6.988298297E-1,4.520402849E-2
2.859892610E-1,-1.178969890E-1,-6.695083380E-1,3.604105115E-2
2.880591840E-1,-8.796459436E-2,-6.102544069E-1,2.809980139E-2
2.900929530E-1,-6.169738993E-2,-5.455026627E-1,1.282817032E-2
2.921619530E-1,-4.886921868E-2,-5.094616413E-1,6.719517522E-3
2.941965300E-1,-2.871066704E-2,-4.422664344E-1,-3.054326167E-3
2.962210300E-1,-1.099557430E-2,-3.744603992E-1,-8.552113548E-3
2.982200300E-1,-1.832595794E-3,-3.396410644E-1,-1.466076635E-2
3.002889140E-1,1.038470957E-2,-2.730567753E-1,-1.649336144E-2
3.023230300E-1,1.954768784E-2,-2.089159191E-1,-1.221730467E-2
3.044389910E-1,2.443460934E-2,-1.753183305E-1,-1.099557430E-2
3.064260680E-1,2.748893574E-2,-1.172861308E-1,-3.054326167E-3
3.084951070E-1,3.237585723E-2,-6.352998316E-2,1.832595794E-3
3.105294910E-1,2.871066704E-2,-1.527163107E-2,1.404990070E-2
3.125981450E-1,3.420845419E-2,8.552113548E-3,1.588249579E-2
3.146712220E-1,2.871066704E-2,5.314527452E-2,2.993239649E-2
3.166348760E-1,2.382374369E-2,8.918632567E-2,3.604105115E-2
3.186344910E-1,1.832595654E-2,1.026253626E-1,4.092797264E-2
3.207039140E-1,9.773843922E-3,1.270599663E-1,5.131268129E-2
3.227381840E-1,4.886921961E-3,1.447750628E-1,5.436700583E-2
3.248546450E-1,1.832595794E-3,1.496619880E-1,5.558873713E-2
3.268420680E-1,6.108652451E-4,1.563815027E-1,5.925392732E-2
3.289110680E-1,-7.941247895E-3,1.563815027E-1,6.047565863E-2
3.309451450E-1,-9.773843922E-3,1.576032341E-1,5.864306539E-2
3.330136840E-1,-9.773843922E-3,1.576032341E-1,6.230825558E-2
3.350481070E-1,-1.038470957E-2,1.496619880E-1,5.864306539E-2
3.370713760E-1,-1.221730467E-2,1.447750628E-1,5.986479297E-2
3.390709140E-1,-7.941247895E-3,1.337794960E-1,6.291911751E-2
3.411401450E-1,-7.941247895E-3,1.233947799E-1,6.169738993E-2
3.431739530E-1,-8.552113548E-3,1.191187203E-1,5.925392732E-2
3.452905680E-1,-5.497787148E-3,1.111774743E-1,5.803219974E-2
3.472768370E-1,-4.886921961E-3,1.069014147E-1,5.803219974E-2
3.493449140E-1,-7.941247895E-3,1.026253626E-1,5.558873713E-2
3.513792600E-1,-3.054326167E-3,9.407325089E-2,5.436700583E-2
3.534480300E-1,-6.108652335E-3,8.368854225E-2,5.009094998E-2
3.555208370E-1,-5.497787148E-3,7.513642311E-2,4.642575979E-2
3.574837990E-1,-3.665191587E-3,6.963863969E-2,4.948008433E-2
3.594833370E-1,-6.719517522E-3,6.047565863E-2,4.398229718E-2
3.615521830E-1,-7.330383174E-3,5.497787148E-2,4.764748737E-2
3.635870680E-1,-7.941247895E-3,5.009094998E-2,4.520402849E-2
3.657038760E-1,-9.162978269E-3,4.825835302E-2,4.459316283E-2
3.676908370E-1,-1.038470957E-2,4.764748737E-2,4.642575979E-2
3.697598760E-1,-1.282817032E-2,4.825835302E-2,4.642575979E-2
3.717936830E-1,-1.404990070E-2,4.337143153E-2,4.214970022E-2
3.738631060E-1,-1.588249579E-2,4.031710699E-2,4.398229718E-2
3.758977600E-1,-1.649336144E-2,4.092797264E-2,4.276056588E-2
3.779214140E-1,-1.832595654E-2,3.848451003E-2,3.726277873E-2
3.801382600E-1,-2.015855350E-2,4.092797264E-2,3.787364438E-2
3.819746450E-1,-2.076941915E-2,4.276056588E-2,4.031710699E-2
3.839738760E-1,-2.443460934E-2,4.764748737E-2,3.359758854E-2
3.860899530E-1,-2.809980139E-2,5.009094998E-2,3.237585723E-2
3.880771450E-1,-3.115412779E-2,5.253441259E-2,3.420845419E-2
3.901461060E-1,-3.543018550E-2,5.742133409E-2,2.504547499E-2
3.921798370E-1,-3.848451003E-2,5.314527452E-2,2.443460934E-2
3.942482990E-1,-4.276056588E-2,4.642575979E-2,2.260201424E-2
3.963212220E-1,-3.909537569E-2,5.192354694E-2,2.260201424E-2
3.982886830E-1,-4.520402849E-2,5.742133409E-2,2.138028294E-2
4.002886060E-1,-4.031710699E-2,6.230825558E-2,2.199114859E-2
4.023580680E-1,-4.459316283E-2,7.269296050E-2,2.321287990E-2
4.043923760E-1,-4.948008433E-2,8.002334833E-2,2.260201424E-2
4.065099910E-1,-5.192354694E-2,8.735372871E-2,2.260201424E-2
4.084960290E-1,-5.436700583E-2,8.857546002E-2,2.199114859E-2
4.105653760E-1,-5.497787148E-2,9.529497474E-2,2.260201424E-2
4.125996450E-1,-6.352998316E-2,1.069014147E-1,1.893682219E-2
4.146694910E-1,-6.414084882E-2,1.087340117E-1,1.832595654E-2
4.167041830E-1,-7.086037099E-2,1.117883399E-1,1.527163107E-2
4.187287990E-1,-8.185594529E-2,1.123992056E-1,1.466076635E-2
4.207292600E-1,-8.429940045E-2,1.136209369E-1,1.221730467E-2
4.227988760E-1,-8.918632567E-2,1.148426682E-1,9.162978269E-3
4.248339520E-1,-9.590584040E-2,1.148426682E-1,5.497787148E-3
4.269512220E-1,-1.020144969E-1,1.142318025E-1,6.108652335E-3
4.289392220E-1,-1.075122803E-1,1.154535338E-1,1.221730490E-3
4.310082990E-1,-1.123992056E-1,1.154535338E-1,-2.443460980E-3
4.330432600E-1,-1.191187203E-1,1.142318025E-1,-4.886921961E-3
4.351128370E-1,-1.252273768E-1,1.117883399E-1,-1.038470957E-2
4.371865290E-1,-1.307251602E-1,1.087340117E-1,-1.160643995E-2
4.391511450E-1,-1.368338168E-1,1.032362282E-1,-1.893682219E-2
4.411513370E-1,-1.386664063E-1,1.007927656E-1,-2.015855350E-2
4.432207600E-1,-1.417207420E-1,9.773843735E-2,-2.443460934E-2
4.452559910E-1,-1.459967941E-1,9.529497474E-2,-2.565634064E-2
4.473727600E-1,-1.508837193E-1,9.712757170E-2,-2.565634064E-2
4.493604140E-1,-1.545489132E-1,9.651670605E-2,-3.176499158E-2
4.514302220E-1,-1.594358236E-1,9.590584040E-2,-3.176499158E-2
4.534650680E-1,-1.618792862E-1,9.468411654E-2,-3.298672289E-2
4.555345680E-1,-1.673770845E-1,8.918632567E-2,-3.543018550E-2
4.575686450E-1,-1.710422635E-1,8.124507964E-2,-4.031710699E-2
4.595926060E-1,-1.698205322E-1,7.574728876E-2,-4.398229718E-2
4.615922600E-1,-1.740965992E-1,6.780604273E-2,-4.825835302E-2
4.636611060E-1,-1.814269722E-1,6.108652428E-2,-5.314527452E-2
4.656950680E-1,-1.814269722E-1,5.742133409E-2,-5.864306539E-2
4.678117210E-1,-1.838704348E-1,5.375614017E-2,-6.352998316E-2
4.697980680E-1,-1.899790913E-1,4.642575979E-2,-6.597344577E-2
4.718662980E-1,-1.924225539E-1,4.276056588E-2,-7.024950534E-2
4.739009910E-1,-1.973094791E-1,3.787364438E-2,-7.330382615E-2
4.759697210E-1,-1.985312104E-1,3.359758854E-2,-8.185594529E-2
4.780426450E-1,-2.052507252E-1,2.565634064E-2,-8.735372871E-2
4.800063370E-1,-2.064724565E-1,1.893682219E-2,-8.857546002E-2
4.820057980E-1,-2.101376504E-1,9.162978269E-3,-9.162978828E-2
4.840745290E-1,-2.150245607E-1,4.276056774E-3,-9.896016866E-2
4.861083750E-1,-2.138028294E-1,3.054326167E-3,-1.020144969E-1
4.882244910E-1,-2.186897546E-1,5.497787148E-3,-1.050688252E-1
4.902111830E-1,-2.235766798E-1,8.552113548E-3,-1.117883399E-1
4.922806830E-1,-2.272418737E-1,9.162978269E-3,-1.160643995E-1
4.943148370E-1,-2.345722616E-1,9.773843922E-3,-1.203404516E-1
4.963835290E-1,-2.412917763E-1,1.099557430E-2,-1.258382350E-1
4.984177210E-1,-2.437352389E-1,1.099557430E-2,-1.258382350E-1
5.004415680E-1,-2.504547536E-1,1.527163107E-2,-1.337794960E-1
5.024406060E-1,-2.553416789E-1,1.649336144E-2,-1.398881376E-1
5.045094910E-1,-2.571742535E-1,1.893682219E-2,-1.453859210E-1
5.065433750E-1,-2.626720667E-1,2.015855350E-2,-1.459967941E-1
5.086590290E-1,-2.675589919E-1,2.199114859E-2,-1.478293836E-1
5.106457980E-1,-2.730567753E-1,2.687807009E-2,-1.459967941E-1
5.127148370E-1,-2.736676335E-1,3.420845419E-2,-1.490511149E-1
5.147484910E-1,-2.773328125E-1,4.337143153E-2,-1.545489132E-1
5.168173370E-1,-2.736676335E-1,4.581489414E-2,-1.563815027E-1
5.188895290E-1,-2.748893499E-1,4.764748737E-2,-1.563815027E-1
5.208516440E-1,-2.687807083E-1,5.314527452E-2,-1.624901593E-1
5.228515290E-1,-2.632829249E-1,5.742133409E-2,-1.618792862E-1
5.249203750E-1,-2.596177161E-1,6.047565863E-2,-1.631010175E-1
5.269552600E-1,-2.480112910E-1,6.108652428E-2,-1.643227488E-1
5.290722210E-1,-2.400700450E-1,6.719517708E-2,-1.643227488E-1
5.310589900E-1,-2.351831198E-1,7.024950534E-2,-1.649336219E-1
5.331283750E-1,-2.229658216E-1,7.880161703E-2,-1.649336219E-1
5.351624900E-1,-2.107485086E-1,8.185594529E-2,-1.649336219E-1
5.372312210E-1,-2.058615834E-1,8.307767659E-2,-1.643227488E-1
5.392652980E-1,-1.954768747E-1,8.307767659E-2,-1.637118906E-1
5.412886060E-1,-1.857030392E-1,8.124507964E-2,-1.600466967E-1
5.432878750E-1,-1.802052408E-1,8.002334833E-2,-1.637118906E-1
5.453567600E-1,-1.692096740E-1,7.330382615E-2,-1.600466967E-1
5.473906060E-1,-1.600466967E-1,6.780604273E-2,-1.606575549E-1
5.495073370E-1,-1.527163088E-1,6.780604273E-2,-1.637118906E-1
5.514932600E-1,-1.429424733E-1,6.414084882E-2,-1.624901593E-1
5.535620290E-1,-1.307251602E-1,6.047565863E-2,-1.631010175E-1
5.555961830E-1,-1.221730486E-1,5.681046844E-2,-1.631010175E-1
5.576654130E-1,-1.166752651E-1,5.009094998E-2,-1.667662114E-1
5.597375290E-1,-1.069014147E-1,4.153883830E-2,-1.649336219E-1
5.617009520E-1,-9.529497474E-2,3.726277873E-2,-1.685988009E-1
5.637002980E-1,-9.712757170E-2,3.665191308E-2,-1.716531366E-1
5.657687980E-1,-8.735372871E-2,3.359758854E-2,-1.704314053E-1
5.678030290E-1,-8.002334833E-2,2.321287990E-2,-1.759291887E-1
5.699198360E-1,-7.696902007E-2,1.771509275E-2,-1.789835095E-1
5.719059130E-1,-7.391469181E-2,1.282817032E-2,-1.814269722E-1
5.739744130E-1,-6.963863969E-2,8.552113548E-3,-1.881465018E-1
5.760079520E-1,-6.658431143E-2,6.719517522E-3,-1.918116808E-1
5.780759130E-1,-7.024950534E-2,-1.832595794E-3,-1.924225539E-1
5.801094520E-1,-6.597344577E-2,-7.941247895E-3,-1.985312104E-1
5.821330670E-1,-6.719517708E-2,-9.773843922E-3,-2.015855312E-1
5.841321440E-1,-6.536258012E-2,-1.343903504E-2,-2.021963894E-1
5.862006060E-1,-6.658431143E-2,-1.649336144E-2,-2.052507252E-1
5.882343360E-1,-6.902777404E-2,-1.588249579E-2,-2.052507252E-1
5.903501060E-1,-7.208210230E-2,-1.527163107E-2,-2.034181207E-1
5.923365290E-1,-7.941248268E-2,-1.221730467E-2,-2.064724565E-1
5.944046830E-1,-8.246681094E-2,-1.282817032E-2,-2.083050460E-1
5.964393360E-1,-9.285151958E-2,-1.588249579E-2,-2.070833147E-1
5.985072590E-1,-1.026253626E-1,-1.893682219E-2,-2.089159191E-1
6.005809520E-1,-1.117883399E-1,-2.504547499E-2,-2.083050460E-1
6.025454520E-1,-1.178969890E-1,-2.626720630E-2,-2.089159191E-1
6.045446830E-1,-1.276708394E-1,-2.993239649E-2,-2.162462920E-1
6.066138750E-1,-1.386664063E-1,-3.481931984E-2,-2.150245607E-1
6.086479520E-1,-1.417207420E-1,-3.726277873E-2,-2.168571651E-1
6.107641060E-1,-1.490511149E-1,-3.970624134E-2,-2.211332172E-1
6.127512980E-1,-1.569923609E-1,-4.581489414E-2,-2.211332172E-1
6.148204130E-1,-1.563815027E-1,-5.070181563E-2,-2.229658216E-1
6.168544900E-1,-1.643227488E-1,-5.925392732E-2,-2.241875380E-1
6.189239520E-1,-1.649336219E-1,-7.147123665E-2,-2.266310006E-1
6.209591060E-1,-1.655444801E-1,-7.819075137E-2,-2.339613885E-1
6.229834900E-1,-1.637118906E-1,-9.529497474E-2,-2.425135076E-1
6.252563750E-1,-1.576032341E-1,-1.105666086E-1,-2.522873580E-1
6.270234520E-1,-1.545489132E-1,-1.178969890E-1,-2.571742535E-1
6.290232210E-1,-1.447750628E-1,-1.319468915E-1,-2.590068579E-1
6.311399900E-1,-1.331686229E-1,-1.398881376E-1,-2.645046413E-1
6.331266050E-1,-1.270599663E-1,-1.453859210E-1,-2.638937831E-1
6.351959130E-1,-1.111774743E-1,-1.539380401E-1,-2.620611787E-1
6.372314130E-1,-9.651670605E-2,-1.624901593E-1,-2.602286041E-1
6.393004900E-1,-8.796459436E-2,-1.618792862E-1,-2.590068579E-1
6.413739520E-1,-7.330382615E-2,-1.685988009E-1,-2.535090744E-1
6.433383750E-1,-5.742133409E-2,-1.704314053E-1,-2.541199327E-1
6.453376050E-1,-5.314527452E-2,-1.740965992E-1,-2.492330223E-1
6.474067980E-1,-4.214970022E-2,-1.771509200E-1,-2.467895597E-1
6.494410670E-1,-2.993239649E-2,-1.777617931E-1,-2.437352389E-1
6.515573360E-1,-2.015855350E-2,-1.795943826E-1,-2.406809032E-1
6.535438750E-1,-1.343903504E-2,-1.783726513E-1,-2.388483137E-1
6.556126050E-1,-4.886921961E-3,-1.808161139E-1,-2.315179259E-1
6.576617590E-1,1.832595794E-3,-1.808161139E-1,-2.235766798E-1
6.597158360E-1,4.886921961E-3,-1.857030392E-1,-2.174680233E-1
6.617499900E-1,1.099557430E-2,-1.924225539E-1,-2.021963894E-1
6.637737210E-1,1.466076635E-2,-2.009746730E-1,-1.912008226E-1
6.657732980E-1,1.710422710E-2,-2.015855312E-1,-1.850921661E-1
6.678421050E-1,1.771509275E-2,-2.046398520E-1,-1.704314053E-1
6.698755280E-1,2.321287990E-2,-2.009746730E-1,-1.612684280E-1
6.719917590E-1,2.504547499E-2,-1.985312104E-1,-1.557706445E-1
6.739785280E-1,2.871066704E-2,-1.930334121E-1,-1.466076523E-1
6.760473750E-1,3.604105115E-2,-1.844813079E-1,-1.362229437E-1
6.780819900E-1,4.276056588E-2,-1.808161139E-1,-1.356120855E-1
6.801506820E-1,5.131268129E-2,-1.734857261E-1,-1.270599663E-1
6.822231440E-1,6.230825558E-2,-1.600466967E-1,-1.276708394E-1
6.841859900E-1,6.658431143E-2,-1.490511149E-1,-1.282816976E-1
6.861854900E-1,7.757988572E-2,-1.246165112E-1,-1.301143020E-1
6.882547980E-1,9.162978828E-2,-1.142318025E-1,-1.288925707E-1
6.902893360E-1,1.056796908E-1,-1.258382350E-1,-1.227839142E-1
6.924044130E-1,1.130100712E-1,-1.356120855E-1,-1.111774743E-1
6.943910670E-1,1.246165112E-1,-1.661553532E-1,-9.285151958E-2
6.964595280E-1,1.374446750E-1,-2.046398520E-1,-7.269296050E-2
6.984924900E-1,1.417207420E-1,-2.223549485E-1,-6.108652428E-2
7.005611820E-1,1.496619880E-1,-2.565633953E-1,-4.337143153E-2
7.025948360E-1,1.557706445E-1,-2.791654170E-1,-2.626720630E-2
7.046185670E-1,1.606575549E-1,-2.907718420E-1,-1.527163107E-2
7.066167980E-1,1.631010175E-1,-3.121521473E-1,4.276056774E-3
7.086857980E-1,1.673770845E-1,-3.396410644E-1,2.443460934E-2
7.107201050E-1,1.673770845E-1,-3.500257730E-1,3.420845419E-2
7.128362210E-1,1.600466967E-1,-3.769038618E-1,5.436700583E-2
7.148229130E-1,1.453859210E-1,-4.001167417E-1,7.635815442E-2
7.168918740E-1,1.356120855E-1,-4.062253833E-1,8.185594529E-2
7.189268360E-1,1.154535338E-1,-3.995058835E-1,8.857546002E-2
7.209950670E-1,9.346238524E-2,-3.744603992E-1,9.468411654E-2
7.230691820E-1,7.819075137E-2,-3.347541690E-1,8.735372871E-2
7.250336050E-1,7.880161703E-2,-3.133738637E-1,7.819075137E-2
7.270326820E-1,7.696902007E-2,-2.712241709E-1,6.719517708E-2
7.291019900E-1,8.796459436E-2,-2.425135076E-1,5.070181563E-2
7.311362590E-1,9.712757170E-2,-2.302961946E-1,4.520402849E-2
7.332529510E-1,1.295034289E-1,-2.131919712E-1,3.787364438E-2
7.352403740E-1,1.704314053E-1,-1.997529417E-1,3.543018550E-2
7.373087200E-1,1.979203373E-1,-1.924225539E-1,3.420845419E-2
7.393437200E-1,2.535090744E-1,-1.777617931E-1,4.092797264E-2
7.414120670E-1,3.133738637E-1,-1.612684280E-1,4.520402849E-2
7.434471440E-1,3.451388776E-1,-1.545489132E-1,5.375614017E-2
7.454717970E-1,4.037819207E-1,-1.398881376E-1,6.902777404E-2
7.474716440E-1,4.630358517E-1,-1.209513173E-1,7.880161703E-2
7.495412970E-1,4.886921942E-1,-1.136209369E-1,8.979719132E-2
7.515756430E-1,5.345070958E-1,-9.285151958E-2,1.032362282E-1
7.536930280E-1,5.754350424E-1,-7.024950534E-2,1.111774743E-1
7.556809130E-1,5.931501389E-1,-5.986479297E-2,1.172861308E-1
7.577512200E-1,6.157521605E-1,-3.848451003E-2,1.203404516E-1
7.597855280E-1,6.279694438E-1,-1.893682219E-2,1.203404516E-1
7.618557590E-1,6.316346526E-1,-3.665191587E-3,1.160643995E-1
7.639281820E-1,6.279694438E-1,1.832595794E-3,1.130100712E-1
7.658915280E-1,6.151412725E-1,7.941247895E-3,1.032362282E-1
7.678907970E-1,6.047565937E-1,4.276056774E-3,9.834930301E-2
7.699587590E-1,5.797111392E-1,-6.108652451E-4,8.674286306E-2
7.719929510E-1,5.540547967E-1,-8.552113548E-3,6.780604273E-2
7.741095280E-1,5.222898126E-1,-2.199114859E-2,5.253441259E-2
7.760972970E-1,5.033529401E-1,-2.809980139E-2,4.276056588E-2
7.781662590E-1,4.673119187E-1,-4.825835302E-2,2.687807009E-2
7.802009510E-1,4.324925840E-1,-6.658431143E-2,4.886921961E-3
7.822697590E-1,4.129449129E-1,-7.696902007E-2,-6.108652335E-3
7.843046050E-1,3.744603992E-1,-9.590584040E-2,-2.504547499E-2
7.863292970E-1,3.384193480E-1,-1.099557430E-1,-4.642575979E-2
7.883283360E-1,3.158173263E-1,-1.166752651E-1,-5.558873713E-2
7.903973740E-1,2.816088796E-1,-1.258382350E-1,-7.391469181E-2
7.924316050E-1,2.400700450E-1,-1.331686229E-1,-8.918632567E-2
7.945479890E-1,2.211332172E-1,-1.368338168E-1,-9.468411654E-2
7.965348740E-1,1.832595766E-1,-1.392772794E-1,-1.069014147E-1
7.986038740E-1,1.441642046E-1,-1.417207420E-1,-1.160643995E-1
8.006386820E-1,1.276708394E-1,-1.411098689E-1,-1.227839142E-1
8.027082200E-1,9.101892263E-2,-1.429424733E-1,-1.258382350E-1
8.047818740E-1,5.864306539E-2,-1.411098689E-1,-1.246165112E-1
8.067466050E-1,3.237585723E-2,-1.362229437E-1,-1.233947799E-1
8.087463360E-1,2.382374369E-2,-1.270599663E-1,-1.233947799E-1
8.108156050E-1,4.276056774E-3,-1.142318025E-1,-1.160643995E-1
8.128499510E-1,-4.886921961E-3,-9.224065393E-2,-1.130100712E-1
8.149667200E-1,-6.719517522E-3,-7.880161703E-2,-1.087340117E-1
8.169538360E-1,-7.941247895E-3,-5.558873713E-2,-1.014036313E-1
8.190230660E-1,-1.832595794E-3,-2.993239649E-2,-9.896016866E-2
8.210571050E-1,3.054326167E-3,-2.260201424E-2,-9.468411654E-2
8.231251430E-1,1.527163107E-2,-7.941247895E-3,-8.613199741E-2
8.251582970E-1,2.993239649E-2,5.497787148E-3,-8.246681094E-2
8.271816430E-1,4.092797264E-2,7.941247895E-3,-7.696902007E-2
8.291814120E-1,5.986479297E-2,1.221730467E-2,-6.719517708E-2
8.312491050E-1,8.124507964E-2,1.527163107E-2,-5.925392732E-2
8.332833740E-1,9.346238524E-2,1.466076635E-2,-5.253441259E-2
8.353997590E-1,1.130100712E-1,1.282817032E-2,-3.970624134E-2
8.373864120E-1,1.368338168E-1,9.162978269E-3,-2.871066704E-2
8.394553350E-1,1.459967941E-1,7.330383174E-3,-2.443460934E-2
8.414901050E-1,1.624901593E-1,3.665191587E-3,-1.588249579E-2
8.435580660E-1,1.802052408E-1,-6.719517522E-3,-3.665191587E-3
8.456301430E-1,1.966986060E-1,-8.552113548E-3,5.497787148E-3
8.475927590E-1,2.058615834E-1,-1.466076635E-2,6.719517522E-3
8.495917200E-1,2.180788964E-1,-2.138028294E-2,1.343903504E-2
8.516603740E-1,2.284636050E-1,-2.871066704E-2,2.260201424E-2
8.536942580E-1,2.302961946E-1,-3.054326214E-2,2.382374369E-2
8.558104890E-1,2.382374406E-1,-4.031710699E-2,2.809980139E-2
8.577974890E-1,2.431243658E-1,-4.764748737E-2,3.359758854E-2
8.598665280E-1,2.480112910E-1,-5.192354694E-2,3.481931984E-2
8.619006820E-1,2.455678284E-1,-5.925392732E-2,3.665191308E-2
8.639692970E-1,2.480112910E-1,-6.963863969E-2,3.909537569E-2
8.660036820E-1,2.443460971E-1,-7.391469181E-2,4.153883830E-2
8.680275280E-1,2.431243658E-1,-8.246681094E-2,4.520402849E-2
8.702444120E-1,2.382374406E-1,-8.796459436E-2,4.398229718E-2
8.720814890E-1,2.321287990E-1,-9.040805697E-2,4.764748737E-2
8.740802580E-1,2.278527319E-1,-9.285151958E-2,4.459316283E-2
8.761971050E-1,2.174680233E-1,-9.834930301E-2,4.886921868E-2
8.781841050E-1,2.144137025E-1,-1.001819000E-1,4.459316283E-2
8.802530280E-1,2.070833147E-1,-9.773843735E-2,4.459316283E-2
8.822877580E-1,1.973094791E-1,-9.651670605E-2,4.276056588E-2
8.843570660E-1,1.918116808E-1,-9.407325089E-2,3.970624134E-2
8.864311810E-1,1.802052408E-1,-8.796459436E-2,3.604105115E-2
8.883958740E-1,1.704314053E-1,-8.368854225E-2,3.420845419E-2
8.903953740E-1,1.643227488E-1,-8.063421398E-2,3.176499158E-2
8.924643740E-1,1.551597714E-1,-7.147123665E-2,2.687807009E-2
8.944991810E-1,1.417207420E-1,-6.291911751E-2,2.565634064E-2
8.966150280E-1,1.319468915E-1,-5.742133409E-2,1.893682219E-2
8.986028740E-1,1.246165112E-1,-5.436700583E-2,1.893682219E-2
9.006719510E-1,1.123992056E-1,-4.825835302E-2,1.649336144E-2
9.027066040E-1,9.712757170E-2,-4.459316283E-2,1.466076635E-2
9.047755280E-1,9.712757170E-2,-4.214970022E-2,1.343903504E-2
9.068102200E-1,8.429940045E-2,-3.726277873E-2,1.038470957E-2
9.088357970E-1,7.513642311E-2,-2.993239649E-2,9.773843922E-3
9.108351040E-1,7.086037099E-2,-2.993239649E-2,7.941247895E-3
9.129044510E-1,6.352998316E-2,-2.443460934E-2,1.038470957E-2
9.149389890E-1,5.742133409E-2,-1.710422710E-2,7.941247895E-3
9.170555660E-1,5.986479297E-2,-1.649336144E-2,4.886921961E-3
9.190429510E-1,5.558873713E-2,-9.162978269E-3,6.719517522E-3
9.211118350E-1,5.436700583E-2,-3.665191587E-3,8.552113548E-3
9.231465270E-1,5.497787148E-2,0.000000000E0,7.330383174E-3
9.252145660E-1,5.742133409E-2,6.108652335E-3,9.773843922E-3
9.272879510E-1,5.803219974E-2,1.099557430E-2,9.162978269E-3
9.292512970E-1,6.230825558E-2,1.588249579E-2,9.773843922E-3
9.312504890E-1,6.352998316E-2,2.015855350E-2,1.282817032E-2
9.333194890E-1,6.841690838E-2,2.748893574E-2,1.343903504E-2
9.353535660E-1,7.513642311E-2,3.115412779E-2,1.527163107E-2
9.374697580E-1,7.635815442E-2,3.481931984E-2,1.527163107E-2
9.394563350E-1,7.880161703E-2,3.787364438E-2,1.527163107E-2
9.415250270E-1,8.063421398E-2,3.848451003E-2,1.710422710E-2
9.435594500E-1,8.674286306E-2,3.970624134E-2,1.588249579E-2
9.456287200E-1,8.307767659E-2,4.153883830E-2,1.832595654E-2
9.476627970E-1,8.735372871E-2,4.398229718E-2,1.771509275E-2
9.496854890E-1,8.613199741E-2,4.214970022E-2,1.832595654E-2
9.516845270E-1,8.307767659E-2,3.848451003E-2,1.771509275E-2
9.537537970E-1,8.124507964E-2,3.909537569E-2,1.893682219E-2
9.557876040E-1,7.880161703E-2,3.481931984E-2,1.832595654E-2
9.579044890E-1,7.330382615E-2,3.298672289E-2,1.466076635E-2
9.598924120E-1,6.475171447E-2,3.176499158E-2,1.710422710E-2
9.619615270E-1,6.108652428E-2,2.809980139E-2,1.527163107E-2
9.639957200E-1,5.375614017E-2,2.748893574E-2,1.466076635E-2
9.660653730E-1,4.398229718E-2,2.443460934E-2,9.773843922E-3
9.681391040E-1,3.481931984E-2,2.260201424E-2,7.330383174E-3
9.701029890E-1,3.115412779E-2,2.199114859E-2,7.941247895E-3
9.721026040E-1,2.504547499E-2,2.199114859E-2,3.054326167E-3
9.741712200E-1,1.588249579E-2,2.199114859E-2,3.054326167E-3
9.762059890E-1,1.343903504E-2,2.138028294E-2,-1.221730490E-3
9.783219500E-1,5.497787148E-3,2.260201424E-2,6.108652451E-4
9.803090660E-1,-3.665191587E-3,2.504547499E-2,-3.665191587E-3
9.823779500E-1,-6.719517522E-3,2.565634064E-2,-6.108652335E-3
9.844121810E-1,-1.527163107E-2,2.871066704E-2,-7.941247895E-3
9.864813730E-1,-2.321287990E-2,3.359758854E-2,-1.038470957E-2
9.885162580E-1,-2.565634064E-2,3.298672289E-2,-1.099557430E-2
9.905402580E-1,-3.420845419E-2,3.726277873E-2,-1.221730467E-2
9.925392580E-1,-4.031710699E-2,4.092797264E-2,-1.527163107E-2
9.946081810E-1,-4.520402849E-2,4.398229718E-2,-1.588249579E-2
9.966428730E-1,-4.886921868E-2,4.886921868E-2,-1.954768784E-2
9.987591810E-1,-5.375614017E-2,5.375614017E-2,-1.771509275E-2
1.000746681E0,-5.375614017E-2,5.375614017E-2,-2.076941915E-2
1.002815681E0,-5.619960278E-2,5.925392732E-2,-2.199114859E-2
1.004849950E0,-5.925392732E-2,5.803219974E-2,-2.076941915E-2
1.006919143E0,-5.864306539E-2,6.108652428E-2,-2.076941915E-2
1.008991873E0,-5.681046844E-2,6.352998316E-2,-2.321287990E-2
1.010953719E0,-5.742133409E-2,6.169738993E-2,-2.321287990E-2
1.012953412E0,-5.742133409E-2,6.230825558E-2,-2.443460934E-2
1.015022681E0,-5.253441259E-2,5.925392732E-2,-2.321287990E-2
1.017056527E0,-5.070181563E-2,5.681046844E-2,-2.932153270E-2
1.019172489E0,-4.703662544E-2,5.375614017E-2,-2.626720630E-2
1.021159796E0,-4.459316283E-2,5.314527452E-2,-2.504547499E-2
1.023227758E0,-3.970624134E-2,4.459316283E-2,-2.993239649E-2
1.025262681E0,-3.481931984E-2,4.031710699E-2,-2.687807009E-2
1.027331719E0,-3.359758854E-2,3.970624134E-2,-2.626720630E-2
1.029366642E0,-2.932153270E-2,3.115412779E-2,-2.871066704E-2
1.031390873E0,-2.321287990E-2,2.443460934E-2,-2.443460934E-2
1.033390604E0,-2.504547499E-2,2.199114859E-2,-2.504547499E-2
1.035459565E0,-1.832595654E-2,1.771509275E-2,-2.260201424E-2
1.037493912E0,-1.466076635E-2,1.282817032E-2,-2.138028294E-2
1.039609296E0,-1.282817032E-2,8.552113548E-3,-2.138028294E-2
1.041596450E0,-7.330383174E-3,6.108652335E-3,-1.710422710E-2
1.043665027E0,-7.330383174E-3,1.221730490E-3,-1.588249579E-2
1.045698950E0,-4.886921961E-3,6.108652451E-4,-1.771509275E-2
1.047767027E0,-3.054326167E-3,-6.108652451E-4,-1.343903504E-2
1.049839989E0,1.832595794E-3,-1.832595794E-3,-1.282817032E-2
1.051802527E0,2.443460980E-3,-2.443460980E-3,-1.160643995E-2
1.053802027E0,3.054326167E-3,-4.276056774E-3,-9.162978269E-3
1.055870412E0,4.276056774E-3,-4.886921961E-3,-9.773843922E-3
1.057904758E0,4.886921961E-3,-2.443460980E-3,-6.108652335E-3
1.060021027E0,6.719517522E-3,-3.665191587E-3,-3.665191587E-3
1.062007642E0,4.276056774E-3,-6.108652451E-4,-6.719517522E-3
1.064076719E0,3.054326167E-3,0.000000000E0,-4.276056774E-3
1.066125258E0,3.054326167E-3,3.054326167E-3,-3.054326167E-3
1.068178335E0,1.221730490E-3,7.330383174E-3,-6.108652335E-3
1.070212412E0,0.000000000E0,1.038470957E-2,-3.054326167E-3
1.072235758E0,-6.108652451E-4,1.221730467E-2,-6.108652335E-3
1.074234758E0,-4.276056774E-3,1.710422710E-2,-6.719517522E-3
1.076303719E0,-6.108652335E-3,2.015855350E-2,-5.497787148E-3
1.078338488E0,-5.497787148E-3,2.138028294E-2,-5.497787148E-3
1.080454488E0,-1.099557430E-2,2.871066704E-2,-3.054326167E-3
1.082440950E0,-1.404990070E-2,3.176499158E-2,-1.832595794E-3
1.084509604E0,-1.404990070E-2,3.298672289E-2,-3.665191587E-3
1.086543604E0,-1.649336144E-2,3.665191308E-2,-1.221730490E-3
1.088612642E0,-2.076941915E-2,3.970624134E-2,-4.886921961E-3
1.090684988E0,-2.199114859E-2,4.031710699E-2,-3.665191587E-3
1.092647873E0,-2.260201424E-2,4.459316283E-2,-2.443460980E-3
1.094646758E0,-2.748893574E-2,4.398229718E-2,-3.054326167E-3
1.096715296E0,-2.932153270E-2,4.520402849E-2,-6.108652335E-3
1.098749334E0,-3.298672289E-2,4.520402849E-2,-4.886921961E-3
1.100865488E0,-3.359758854E-2,4.581489414E-2,-7.941247895E-3
1.102852758E0,-3.726277873E-2,4.642575979E-2,-5.497787148E-3
1.104921681E0,-4.092797264E-2,4.398229718E-2,-8.552113548E-3
1.106956142E0,-4.031710699E-2,4.276056588E-2,-1.099557430E-2
1.109024911E0,-4.520402849E-2,3.970624134E-2,-1.221730467E-2
1.111059450E0,-4.581489414E-2,3.726277873E-2,-1.221730467E-2
1.113083604E0,-5.192354694E-2,3.543018550E-2,-1.160643995E-2
1.115298296E0,-5.070181563E-2,2.993239649E-2,-1.221730467E-2
1.117134988E0,-5.192354694E-2,2.809980139E-2,-1.466076635E-2
1.119134219E0,-5.314527452E-2,2.809980139E-2,-1.588249579E-2
1.121249719E0,-5.864306539E-2,2.260201424E-2,-1.527163107E-2
1.123236450E0,-5.925392732E-2,2.076941915E-2,-1.649336144E-2
1.125304873E0,-5.986479297E-2,1.893682219E-2,-1.527163107E-2
1.127339604E0,-6.169738993E-2,1.527163107E-2,-1.527163107E-2
1.129408527E0,-6.414084882E-2,1.466076635E-2,-1.832595654E-2
1.131480757E0,-6.597344577E-2,1.221730467E-2,-1.588249579E-2
1.133445027E0,-6.841690838E-2,1.221730467E-2,-1.771509275E-2
1.135444988E0,-7.086037099E-2,9.162978269E-3,-1.710422710E-2
1.137514296E0,-7.208210230E-2,9.773843922E-3,-1.404990070E-2
1.139548257E0,-7.330382615E-2,8.552113548E-3,-1.527163107E-2
1.141664334E0,-7.696902007E-2,9.773843922E-3,-1.710422710E-2
1.143651680E0,-7.452555746E-2,9.162978269E-3,-1.527163107E-2
1.145720334E0,-7.696902007E-2,9.773843922E-3,-1.527163107E-2
1.147753873E0,-7.880161703E-2,9.162978269E-3,-1.343903504E-2
1.149822411E0,-7.941248268E-2,1.160643995E-2,-1.588249579E-2
1.151856142E0,-8.063421398E-2,1.404990070E-2,-1.343903504E-2
1.153879950E0,-8.124507964E-2,1.404990070E-2,-1.038470957E-2
1.155878950E0,-7.819075137E-2,1.527163107E-2,-1.404990070E-2
1.157948219E0,-7.941248268E-2,1.710422710E-2,-1.160643995E-2
1.159982488E0,-8.063421398E-2,2.076941915E-2,-1.343903504E-2
1.162098373E0,-8.063421398E-2,2.199114859E-2,-1.099557430E-2
1.164085834E0,-8.246681094E-2,2.565634064E-2,-9.773843922E-3
1.166154488E0,-8.185594529E-2,2.626720630E-2,-1.282817032E-2
1.168189334E0,-8.185594529E-2,2.993239649E-2,-8.552113548E-3
1.170258450E0,-8.002334833E-2,3.115412779E-2,-9.162978269E-3
1.172331719E0,-7.819075137E-2,3.298672289E-2,-1.221730467E-2
1.174293719E0,-7.757988572E-2,3.359758854E-2,-9.162978269E-3
1.176293796E0,-7.635815442E-2,3.665191308E-2,-1.038470957E-2
1.178362796E0,-7.635815442E-2,3.848451003E-2,-9.773843922E-3
1.180397103E0,-7.757988572E-2,4.092797264E-2,-4.276056774E-3
1.182513526E0,-7.819075137E-2,4.398229718E-2,-9.162978269E-3
1.184500526E0,-7.391469181E-2,4.764748737E-2,-8.552113548E-3
1.186569719E0,-7.147123665E-2,5.009094998E-2,-3.665191587E-3
1.188604065E0,-7.208210230E-2,5.131268129E-2,-6.108652335E-3
1.190672526E0,-7.024950534E-2,5.314527452E-2,-4.276056774E-3
1.192706719E0,-6.719517708E-2,5.497787148E-2,-2.443460980E-3
1.194730719E0,-6.597344577E-2,5.558873713E-2,-5.497787148E-3
1.196730296E0,-6.597344577E-2,5.681046844E-2,0.000000000E0
1.198799796E0,-6.108652428E-2,5.681046844E-2,0.000000000E0
1.200834065E0,-5.803219974E-2,5.742133409E-2,-2.443460980E-3
1.202950949E0,-5.803219974E-2,5.619960278E-2,1.221730490E-3
1.204939065E0,-5.619960278E-2,5.681046844E-2,1.832595794E-3
1.207008449E0,-5.375614017E-2,5.558873713E-2,0.000000000E0
1.209042526E0,-5.375614017E-2,5.619960278E-2,4.886921961E-3
1.211112065E0,-5.192354694E-2,5.436700583E-2,4.276056774E-3
1.213185180E0,-4.764748737E-2,5.436700583E-2,-1.221730490E-3
1.215149026E0,-4.886921868E-2,5.375614017E-2,5.497787148E-3
1.217149296E0,-4.642575979E-2,5.070181563E-2,3.054326167E-3
1.219217872E0,-4.764748737E-2,5.009094998E-2,3.665191587E-3
1.221252372E0,-4.520402849E-2,4.703662544E-2,4.276056774E-3
1.223369026E0,-4.214970022E-2,4.825835302E-2,2.443460980E-3
1.225355988E0,-4.398229718E-2,4.459316283E-2,4.276056774E-3
1.227424949E0,-4.092797264E-2,4.398229718E-2,1.221730490E-3
1.229459526E0,-4.214970022E-2,4.092797264E-2,6.108652451E-4
1.231528180E0,-3.848451003E-2,3.909537569E-2,6.108652451E-4
1.233562757E0,-3.726277873E-2,3.543018550E-2,2.443460980E-3
1.235586565E0,-3.848451003E-2,3.481931984E-2,1.832595794E-3
1.237586565E0,-3.665191308E-2,3.237585723E-2,0.000000000E0
1.239655219E0,-3.665191308E-2,3.420845419E-2,6.108652451E-4
1.241689334E0,-3.237585723E-2,3.115412779E-2,-6.108652451E-4
1.243805565E0,-3.176499158E-2,3.237585723E-2,-6.108652451E-4
1.245792334E0,-3.420845419E-2,3.054326214E-2,1.221730490E-3
1.247860449E0,-3.115412779E-2,2.993239649E-2,-2.443460980E-3
1.249894526E0,-2.993239649E-2,3.054326214E-2,-2.443460980E-3
1.251962257E0,-2.871066704E-2,3.054326214E-2,-3.054326167E-3
1.254034642E0,-2.626720630E-2,3.054326214E-2,-8.552113548E-3
1.256000065E0,-2.565634064E-2,3.054326214E-2,-3.665191587E-3
1.257999718E0,-2.687807009E-2,3.054326214E-2,-1.832595794E-3
1.260068218E0,-2.565634064E-2,2.993239649E-2,-9.162978269E-3
1.262102526E0,-2.443460934E-2,3.054326214E-2,-6.719517522E-3
1.264218257E0,-2.260201424E-2,3.115412779E-2,-3.054326167E-3
1.266205142E0,-2.015855350E-2,3.115412779E-2,-7.330383174E-3
1.268273949E0,-2.138028294E-2,2.871066704E-2,-7.330383174E-3
1.270308411E0,-2.199114859E-2,2.687807009E-2,-4.886921961E-3
1.272376949E0,-2.138028294E-2,2.687807009E-2,-6.108652335E-3
1.274410911E0,-1.893682219E-2,2.871066704E-2,-6.108652335E-3
1.276434911E0,-1.893682219E-2,2.748893574E-2,-4.886921961E-3
1.278433411E0,-1.832595654E-2,2.932153270E-2,-7.330383174E-3
1.280501757E0,-1.649336144E-2,2.687807009E-2,-5.497787148E-3
1.282536141E0,-1.710422710E-2,2.382374369E-2,-8.552113548E-3
1.284653218E0,-1.710422710E-2,2.504547499E-2,-6.108652335E-3
1.286639526E0,-1.466076635E-2,2.382374369E-2,-7.330383174E-3
1.288709141E0,-1.527163107E-2,2.199114859E-2,-8.552113548E-3
1.290743526E0,-1.466076635E-2,2.076941915E-2,-8.552113548E-3
1.292812103E0,-1.649336144E-2,1.771509275E-2,-6.719517522E-3
1.294884911E0,-1.527163107E-2,1.893682219E-2,-8.552113548E-3
1.296848757E0,-1.404990070E-2,1.832595654E-2,-9.162978269E-3
1.298848372E0,-1.282817032E-2,1.649336144E-2,-9.773843922E-3
1.300917180E0,-1.466076635E-2,1.466076635E-2,-9.162978269E-3
1.302950988E0,-1.404990070E-2,1.466076635E-2,-8.552113548E-3
1.305068026E0,-1.466076635E-2,1.404990070E-2,-5.497787148E-3
1.307055064E0,-1.282817032E-2,1.221730467E-2,-7.941247895E-3
1.309124218E0,-1.221730467E-2,1.282817032E-2,-9.162978269E-3
1.311158603E0,-1.343903504E-2,1.099557430E-2,-7.941247895E-3
1.313226834E0,-1.282817032E-2,1.099557430E-2,-1.038470957E-2
1.315261411E0,-1.160643995E-2,9.162978269E-3,-9.162978269E-3
1.317285795E0,-1.282817032E-2,9.162978269E-3,-9.773843922E-3
1.319285141E0,-1.099557430E-2,9.162978269E-3,-9.162978269E-3
1.321354911E0,-1.099557430E-2,9.162978269E-3,-6.108652335E-3
1.323390141E0,-1.404990070E-2,7.330383174E-3,-6.719517522E-3
1.325505987E0,-1.221730467E-2,6.719517522E-3,-7.330383174E-3
1.327493334E0,-9.773843922E-3,6.108652335E-3,-9.162978269E-3
1.329562334E0,-1.038470957E-2,6.108652335E-3,-9.162978269E-3
1.331596834E0,-8.552113548E-3,7.941247895E-3,-9.162978269E-3
1.333666603E0,-6.108652335E-3,5.497787148E-3,-9.162978269E-3
1.335740064E0,-5.497787148E-3,6.719517522E-3,-9.162978269E-3
1.337703026E0,-4.886921961E-3,7.330383174E-3,-9.162978269E-3
1.339703372E0,-4.276056774E-3,7.330383174E-3,-7.941247895E-3
1.341772334E0,0.000000000E0,6.108652335E-3,-9.773843922E-3
1.343807641E0,0.000000000E0,7.941247895E-3,-5.497787148E-3
1.345923872E0,3.054326167E-3,6.108652335E-3,-8.552113548E-3
1.347911295E0,4.276056774E-3,6.108652335E-3,-7.330383174E-3
1.349980141E0,7.330383174E-3,7.330383174E-3,-4.886921961E-3
1.352014295E0,6.108652335E-3,4.886921961E-3,-6.108652335E-3
1.354083103E0,8.552113548E-3,3.665191587E-3,-7.941247895E-3
1.356117949E0,8.552113548E-3,5.497787148E-3,-4.886921961E-3
1.358141872E0,7.941247895E-3,3.054326167E-3,-5.497787148E-3
1.360360257E0,1.038470957E-2,3.665191587E-3,-6.719517522E-3
1.362197026E0,9.162978269E-3,2.443460980E-3,-1.221730490E-3
1.364196910E0,9.773843922E-3,1.221730490E-3,-4.276056774E-3
1.366313372E0,1.404990070E-2,6.108652451E-4,-6.108652335E-3
1.368301487E0,1.343903504E-2,-6.108652451E-4,-3.665191587E-3
1.370370718E0,1.221730467E-2,-4.886921961E-3,-6.108652335E-3
1.372405180E0,1.527163107E-2,-3.054326167E-3,-6.108652335E-3
1.374473641E0,1.038470957E-2,-6.108652335E-3,-4.276056774E-3
1.376546526E0,1.221730467E-2,-7.941247895E-3,-3.665191587E-3
1.378511295E0,1.221730467E-2,-7.941247895E-3,-5.497787148E-3
1.380510141E0,1.282817032E-2,-7.941247895E-3,-1.832595794E-3
1.382577718E0,9.162978269E-3,-7.941247895E-3,-3.665191587E-3
1.384611718E0,1.160643995E-2,-9.773843922E-3,-3.054326167E-3
1.386727987E0,8.552113548E-3,-9.773843922E-3,-3.054326167E-3
1.388714833E0,1.038470957E-2,-1.160643995E-2,-3.665191587E-3
1.390783756E0,7.941247895E-3,-1.038470957E-2,-4.276056774E-3
1.392817180E0,7.330383174E-3,-1.099557430E-2,-6.108652335E-3
1.394886026E0,7.941247895E-3,-1.099557430E-2,-4.886921961E-3
1.396920449E0,7.941247895E-3,-9.162978269E-3,-4.886921961E-3
1.398944179E0,5.497787148E-3,-9.162978269E-3,-3.054326167E-3
1.400944064E0,4.886921961E-3,-1.099557430E-2,-4.886921961E-3
1.403012026E0,5.497787148E-3,-1.099557430E-2,-4.886921961E-3
1.405045949E0,4.276056774E-3,-1.099557430E-2,-4.276056774E-3
1.407162218E0,4.276056774E-3,-6.719517522E-3,-6.719517522E-3
1.409148487E0,7.330383174E-3,-6.719517522E-3,-5.497787148E-3
1.411216833E0,3.665191587E-3,-7.330383174E-3,-3.665191587E-3
1.413250910E0,5.497787148E-3,-6.108652335E-3,-9.162978269E-3
1.415319218E0,5.497787148E-3,-4.276056774E-3,-5.497787148E-3
1.417391718E0,5.497787148E-3,-4.276056774E-3,-6.719517522E-3
1.419360064E0,6.108652335E-3,-2.443460980E-3,-6.719517522E-3
1.421358602E0,4.886921961E-3,-2.443460980E-3,-2.443460980E-3
1.423426987E0,4.276056774E-3,-2.443460980E-3,-6.108652335E-3
1.425461141E0,5.497787148E-3,6.108652451E-4,-9.162978269E-3
1.427577602E0,5.497787148E-3,1.221730490E-3,-3.665191587E-3
1.429563679E0,4.276056774E-3,1.221730490E-3,-5.497787148E-3
1.431631910E0,4.276056774E-3,3.054326167E-3,-7.941247895E-3
1.433666141E0,4.886921961E-3,3.054326167E-3,-4.886921961E-3
1.435735025E0,1.221730490E-3,3.054326167E-3,-4.886921961E-3
1.437769295E0,6.108652451E-4,1.832595794E-3,-6.108652335E-3
1.439788218E0,4.886921961E-3,3.665191587E-3,-4.276056774E-3
1.441788064E0,3.665191587E-3,5.497787148E-3,-5.497787148E-3
1.443856756E0,3.665191587E-3,4.276056774E-3,-6.108652335E-3
1.445890910E0,3.054326167E-3,3.665191587E-3,-7.330383174E-3
1.448007487E0,4.886921961E-3,4.886921961E-3,-7.330383174E-3
1.449994910E0,1.832595794E-3,3.665191587E-3,-6.108652335E-3
1.452063641E0,3.665191587E-3,4.886921961E-3,-5.497787148E-3
1.454098872E0,6.108652335E-3,4.886921961E-3,-5.497787148E-3
1.456168295E0,3.665191587E-3,4.886921961E-3,-6.719517522E-3
1.458241910E0,4.276056774E-3,5.497787148E-3,-8.552113548E-3
1.460206141E0,3.665191587E-3,4.276056774E-3,-7.941247895E-3
1.462205064E0,7.330383174E-3,3.665191587E-3,-8.552113548E-3
1.464274795E0,4.276056774E-3,2.443460980E-3,-4.886921961E-3
1.466309102E0,4.886921961E-3,2.443460980E-3,-9.162978269E-3
1.468425179E0,4.276056774E-3,1.832595794E-3,-9.162978269E-3
1.470411872E0,4.276056774E-3,3.665191587E-3,-1.099557430E-2
1.472481295E0,4.886921961E-3,1.832595794E-3,-1.038470957E-2
1.474529833E0,6.108652335E-3,-1.832595794E-3,-9.162978269E-3
1.476584141E0,4.886921961E-3,0.000000000E0,-9.162978269E-3
1.478618833E0,6.108652335E-3,-3.665191587E-3,-1.099557430E-2
1.480643218E0,7.330383174E-3,-3.665191587E-3,-8.552113548E-3
1.482643333E0,5.497787148E-3,-5.497787148E-3,-1.099557430E-2
1.484711987E0,5.497787148E-3,-6.108652335E-3,-1.038470957E-2
1.486746371E0,7.941247895E-3,-7.330383174E-3,-1.099557430E-2
1.488862218E0,6.108652335E-3,-9.773843922E-3,-1.038470957E-2
1.490849025E0,9.162978269E-3,-8.552113548E-3,-1.160643995E-2
1.492917602E0,1.038470957E-2,-1.038470957E-2,-8.552113548E-3
1.494952256E0,9.773843922E-3,-1.160643995E-2,-1.038470957E-2
1.497020948E0,1.038470957E-2,-9.773843922E-3,-1.221730467E-2
1.499093794E0,1.160643995E-2,-1.160643995E-2,-1.038470957E-2
1.501055679E0,1.160643995E-2,-1.099557430E-2,-1.282817032E-2
1.503054564E0,1.221730467E-2,-9.773843922E-3,-9.773843922E-3
1.505123294E0,1.221730467E-2,-9.773843922E-3,-8.552113548E-3
1.507157371E0,1.588249579E-2,-7.330383174E-3,-1.221730467E-2
1.509273871E0,1.588249579E-2,-7.941247895E-3,-8.552113548E-3
1.511260602E0,1.649336144E-2,-7.330383174E-3,-1.099557430E-2
1.513329679E0,1.527163107E-2,-6.108652335E-3,-1.221730467E-2
1.515363910E0,1.771509275E-2,-5.497787148E-3,-9.162978269E-3
1.517432948E0,1.832595654E-2,-7.330383174E-3,-8.552113548E-3
1.519467217E0,2.076941915E-2,-4.886921961E-3,-9.773843922E-3
1.521491217E0,2.199114859E-2,-6.108652335E-3,-7.941247895E-3
1.523490294E0,1.893682219E-2,-5.497787148E-3,-5.497787148E-3
1.525558410E0,2.199114859E-2,-3.665191587E-3,-9.162978269E-3
1.527592602E0,2.382374369E-2,-3.665191587E-3,-7.330383174E-3
1.529708833E0,2.138028294E-2,-3.054326167E-3,-4.886921961E-3
1.531695525E0,2.443460934E-2,-1.832595794E-3,-9.162978269E-3
1.533763794E0,2.504547499E-2,-1.832595794E-3,-7.330383174E-3
1.535797948E0,2.504547499E-2,-1.221730490E-3,-4.886921961E-3
1.537866640E0,2.443460934E-2,-1.832595794E-3,-6.719517522E-3
1.539938602E0,2.687807009E-2,-2.443460980E-3,-7.941247895E-3
1.541902217E0,2.260201424E-2,-2.443460980E-3,-4.276056774E-3
1.543901140E0,2.565634064E-2,6.108652451E-4,-5.497787148E-3
1.545969102E0,2.565634064E-2,1.832595794E-3,-3.665191587E-3
1.548003602E0,2.504547499E-2,1.832595794E-3,-3.054326167E-3
1.550119640E0,2.443460934E-2,2.443460980E-3,-3.665191587E-3
1.552105717E0,2.443460934E-2,4.276056774E-3,-2.443460980E-3
1.554173640E0,2.260201424E-2,3.665191587E-3,-3.054326167E-3
1.556207794E0,2.382374369E-2,3.054326167E-3,-4.276056774E-3
1.558275833E0,2.687807009E-2,3.665191587E-3,-3.054326167E-3
1.560309640E0,2.321287990E-2,4.886921961E-3,-3.665191587E-3
1.562332794E0,2.565634064E-2,6.719517522E-3,-4.276056774E-3
1.564331410E0,2.382374369E-2,5.497787148E-3,-1.832595794E-3
1.566399833E0,2.382374369E-2,7.330383174E-3,-4.886921961E-3
1.568433333E0,2.626720630E-2,7.941247895E-3,-3.665191587E-3
1.570550063E0,2.321287990E-2,9.162978269E-3,-3.665191587E-3
1.572536679E0,2.565634064E-2,8.552113548E-3,-3.054326167E-3
1.574605794E0,2.504547499E-2,8.552113548E-3,-3.665191587E-3
1.576639794E0,2.626720630E-2,1.160643995E-2,-4.886921961E-3
1.578708986E0,2.626720630E-2,1.099557430E-2,-1.832595794E-3
1.580781486E0,2.504547499E-2,1.099557430E-2,-3.054326167E-3
1.582744871E0,2.565634064E-2,1.404990070E-2,-3.665191587E-3
1.584744179E0,2.748893574E-2,1.221730467E-2,-3.665191587E-3
1.586812102E0,2.504547499E-2,1.221730467E-2,-3.054326167E-3
1.588846025E0,2.626720630E-2,1.466076635E-2,-3.665191587E-3
1.590961371E0,2.504547499E-2,1.343903504E-2,-2.443460980E-3
1.592947679E0,2.443460934E-2,1.343903504E-2,-5.497787148E-3
1.595015410E0,2.748893574E-2,1.160643995E-2,-4.276056774E-3
1.597048756E0,2.443460934E-2,1.221730467E-2,-4.276056774E-3
1.599117333E0,2.382374369E-2,1.221730467E-2,-6.108652335E-3
1.601150909E0,2.687807009E-2,1.282817032E-2,-6.108652335E-3
1.603174333E0,2.932153270E-2,1.404990070E-2,-6.719517522E-3
1.605388679E0,2.687807009E-2,1.588249579E-2,-5.497787148E-3
1.607224794E0,2.443460934E-2,1.710422710E-2,-3.054326167E-3
1.609223409E0,2.443460934E-2,1.649336144E-2,-6.108652335E-3
1.611338794E0,2.443460934E-2,1.832595654E-2,-4.886921961E-3
1.613325102E0,2.504547499E-2,1.893682219E-2,-4.886921961E-3
1.615392833E0,2.443460934E-2,1.893682219E-2,-6.108652335E-3
1.617427217E0,2.260201424E-2,2.076941915E-2,-6.108652335E-3
1.619494986E0,2.260201424E-2,2.015855350E-2,-3.054326167E-3
1.621567448E0,2.138028294E-2,1.954768784E-2,-7.330383174E-3
1.623532832E0,2.321287990E-2,2.260201424E-2,-6.719517522E-3
1.625531948E0,2.504547499E-2,2.199114859E-2,-7.330383174E-3
1.627600871E0,2.321287990E-2,2.382374369E-2,-3.054326167E-3
1.629634909E0,2.260201424E-2,2.321287990E-2,-5.497787148E-3
1.631750409E0,2.260201424E-2,2.382374369E-2,-5.497787148E-3
1.633737025E0,2.382374369E-2,2.260201424E-2,-6.108652335E-3
1.635805794E0,2.260201424E-2,2.076941915E-2,-4.276056774E-3
1.637840679E0,2.443460934E-2,2.199114859E-2,-5.497787148E-3
1.639909832E0,2.443460934E-2,2.076941915E-2,-4.886921961E-3
1.641944294E0,2.443460934E-2,1.893682219E-2,-5.497787148E-3
1.643968679E0,2.626720630E-2,2.015855350E-2,-6.108652335E-3
1.645968602E0,2.809980139E-2,1.771509275E-2,-7.330383174E-3
1.648037755E0,2.993239649E-2,1.832595654E-2,-5.497787148E-3
1.650072602E0,2.932153270E-2,1.710422710E-2,-6.108652335E-3
1.652189294E0,2.871066704E-2,1.710422710E-2,-7.330383174E-3
1.654175717E0,2.993239649E-2,1.527163107E-2,-5.497787148E-3
1.656244063E0,2.932153270E-2,1.588249579E-2,-5.497787148E-3
1.658278409E0,3.176499158E-2,1.588249579E-2,-6.719517522E-3
1.660346409E0,3.176499158E-2,1.466076635E-2,-2.443460980E-3
1.662418563E0,3.298672289E-2,1.832595654E-2,-6.719517522E-3
1.664381217E0,3.359758854E-2,1.588249579E-2,-5.497787148E-3
1.666380063E0,3.176499158E-2,1.649336144E-2,-6.108652335E-3
1.668448563E0,3.176499158E-2,1.771509275E-2,-4.886921961E-3
1.670482794E0,2.993239649E-2,1.527163107E-2,-3.054326167E-3
1.672599525E0,2.932153270E-2,1.710422710E-2,-4.886921961E-3
1.674585871E0,2.932153270E-2,1.771509275E-2,-4.276056774E-3
1.676654832E0,2.809980139E-2,1.771509275E-2,-3.665191587E-3
1.678689178E0,2.809980139E-2,1.710422710E-2,-4.886921961E-3
1.680757563E0,2.443460934E-2,1.771509275E-2,-1.221730490E-3
1.682790409E0,2.565634064E-2,1.771509275E-2,-1.832595794E-3
1.684814140E0,2.748893574E-2,1.649336144E-2,-2.443460980E-3
1.686812409E0,2.626720630E-2,1.527163107E-2,-1.221730490E-3
1.688880178E0,2.321287990E-2,1.649336144E-2,1.832595794E-3
1.690914025E0,2.382374369E-2,1.466076635E-2,-6.108652451E-4
1.693029794E0,2.260201424E-2,1.221730467E-2,6.108652451E-4
1.695015832E0,2.443460934E-2,1.160643995E-2,3.054326167E-3
1.697084524E0,2.321287990E-2,1.221730467E-2,2.443460980E-3
1.699118678E0,2.138028294E-2,7.941247895E-3,3.054326167E-3
1.701186678E0,2.199114859E-2,7.941247895E-3,4.276056774E-3
1.703259178E0,2.321287990E-2,4.276056774E-3,4.886921961E-3
1.705223140E0,2.321287990E-2,3.665191587E-3,2.443460980E-3
1.707222063E0,2.199114859E-2,-1.832595794E-3,7.941247895E-3
1.709290986E0,2.015855350E-2,-1.832595794E-3,3.054326167E-3
1.711325178E0,2.260201424E-2,-1.221730490E-3,3.665191587E-3
1.713441332E0,2.076941915E-2,-4.276056774E-3,6.108652335E-3
1.715427640E0,2.260201424E-2,-1.221730490E-3,3.665191587E-3
1.717496717E0,2.565634064E-2,0.000000000E0,3.665191587E-3
1.719530409E0,2.443460934E-2,-2.443460980E-3,4.276056774E-3
1.721599101E0,2.565634064E-2,-1.221730490E-3,3.054326167E-3
1.723634601E0,2.321287990E-2,-3.054326167E-3,3.054326167E-3
1.725658524E0,2.565634064E-2,-1.832595794E-3,5.497787148E-3
1.727657947E0,2.626720630E-2,-6.108652451E-4,3.054326167E-3
1.729726371E0,2.626720630E-2,-6.108652451E-4,6.108652335E-3
1.731761486E0,2.809980139E-2,-6.108652451E-4,5.497787148E-3
1.733878601E0,2.504547499E-2,1.832595794E-3,4.276056774E-3
1.735865601E0,2.809980139E-2,3.665191587E-3,3.665191587E-3
1.737934986E0,2.626720630E-2,2.443460980E-3,6.719517522E-3
1.739968986E0,2.809980139E-2,1.832595794E-3,5.497787148E-3
1.742037755E0,2.504547499E-2,5.497787148E-3,3.054326167E-3
1.744111178E0,2.687807009E-2,6.108652335E-3,7.330383174E-3
1.746076678E0,2.626720630E-2,5.497787148E-3,3.665191587E-3
1.748076063E0,2.565634064E-2,6.719517522E-3,1.832595794E-3
1.750145140E0,2.382374369E-2,1.099557430E-2,3.054326167E-3
1.752179909E0,2.443460934E-2,1.099557430E-2,3.665191587E-3
1.754296832E0,2.504547499E-2,9.773843922E-3,1.832595794E-3
1.756283524E0,2.382374369E-2,1.282817032E-2,4.276056774E-3
1.758352717E0,2.260201424E-2,1.160643995E-2,3.665191587E-3
1.760386601E0,2.199114859E-2,9.162978269E-3,7.330383174E-3
1.762455178E0,2.260201424E-2,9.162978269E-3,5.497787148E-3
1.764489370E0,2.138028294E-2,9.162978269E-3,6.719517522E-3
1.766514217E0,2.076941915E-2,9.162978269E-3,2.443460980E-3
1.768513524E0,2.015855350E-2,7.941247895E-3,6.108652335E-3
1.770582486E0,2.076941915E-2,6.719517522E-3,-1.221730490E-3
1.772616909E0,2.199114859E-2,4.886921961E-3,3.054326167E-3
1.774733217E0,1.893682219E-2,1.832595794E-3,5.497787148E-3
1.776719832E0,1.710422710E-2,1.832595794E-3,4.886921961E-3
1.778788678E0,1.771509275E-2,0.000000000E0,3.054326167E-3
1.780823024E0,1.710422710E-2,0.000000000E0,4.886921961E-3
1.782891447E0,1.588249579E-2,6.108652451E-4,3.054326167E-3
1.784964178E0,1.160643995E-2,-3.054326167E-3,3.665191587E-3
1.786927216E0,1.282817032E-2,-3.054326167E-3,7.941247895E-3
1.788926755E0,1.282817032E-2,-4.276056774E-3,5.497787148E-3
1.790995332E0,1.343903504E-2,-5.497787148E-3,7.330383174E-3
1.793029370E0,1.221730467E-2,-4.886921961E-3,6.719517522E-3
1.795146178E0,1.160643995E-2,-4.276056774E-3,5.497787148E-3
1.797132293E0,1.038470957E-2,-4.886921961E-3,9.773843922E-3
1.799200793E0,9.162978269E-3,-3.665191587E-3,7.330383174E-3
1.801235178E0,1.160643995E-2,-4.886921961E-3,5.497787148E-3
1.803303063E0,8.552113548E-3,-6.108652335E-3,1.038470957E-2
1.805337447E0,1.038470957E-2,-3.054326167E-3,7.941247895E-3
1.807361332E0,8.552113548E-3,-6.108652451E-4,9.773843922E-3
1.809360870E0,7.330383174E-3,-2.443460980E-3,7.941247895E-3
1.811429370E0,7.330383174E-3,-6.108652451E-4,4.276056774E-3
1.813463601E0,4.886921961E-3,-1.221730490E-3,6.719517522E-3
1.815579716E0,6.719517522E-3,6.108652451E-4,8.552113548E-3
1.817567063E0,4.886921961E-3,-6.108652451E-4,7.330383174E-3
1.819634793E0,4.886921961E-3,-6.108652451E-4,5.497787148E-3
1.821668601E0,6.719517522E-3,1.221730490E-3,9.162978269E-3
1.823736947E0,4.276056774E-3,1.832595794E-3,6.719517522E-3
1.825809332E0,4.886921961E-3,6.108652451E-4,4.276056774E-3
1.827771947E0,6.108652451E-4,1.221730490E-3,9.773843922E-3
1.829770678E0,2.443460980E-3,6.108652451E-4,7.330383174E-3
1.831839293E0,1.832595794E-3,2.443460980E-3,5.497787148E-3
1.833873216E0,0.000000000E0,6.108652451E-4,7.941247895E-3
1.835989370E0,-6.108652451E-4,1.221730490E-3,6.108652335E-3
1.837975755E0,-6.108652451E-4,1.832595794E-3,3.054326167E-3
1.840044178E0,0.000000000E0,0.000000000E0,9.773843922E-3
1.842079293E0,0.000000000E0,0.000000000E0,5.497787148E-3
1.844147024E0,-1.832595794E-3,-6.108652451E-4,7.941247895E-3
1.846181139E0,-3.665191587E-3,-1.221730490E-3,6.108652335E-3
1.848204716E0,-3.054326167E-3,0.000000000E0,6.108652335E-3
1.850419062E0,-4.276056774E-3,1.832595794E-3,6.719517522E-3
1.852255947E0,-1.832595794E-3,0.000000000E0,1.832595794E-3
1.854255485E0,-6.108652335E-3,2.443460980E-3,4.886921961E-3
1.856371909E0,-6.108652335E-3,6.108652451E-4,5.497787148E-3
1.858358639E0,-6.108652335E-3,1.832595794E-3,4.886921961E-3
1.860426908E0,-7.330383174E-3,3.665191587E-3,3.054326167E-3
1.862461139E0,-6.719517522E-3,3.054326167E-3,1.221730490E-3
1.864530370E0,-7.330383174E-3,5.497787148E-3,3.054326167E-3
1.866603370E0,-1.038470957E-2,4.276056774E-3,3.054326167E-3
1.868568985E0,-7.941247895E-3,4.276056774E-3,1.221730490E-3
1.870568024E0,-9.773843922E-3,5.497787148E-3,-1.221730490E-3
1.872636870E0,-1.343903504E-2,7.941247895E-3,4.886921961E-3
1.874671716E0,-1.099557430E-2,8.552113548E-3,0.000000000E0
1.876788485E0,-8.552113548E-3,9.773843922E-3,1.221730490E-3
1.878775485E0,-9.773843922E-3,1.160643995E-2,1.221730490E-3
1.880844216E0,-9.162978269E-3,1.221730467E-2,3.665191587E-3
1.882893485E0,-8.552113548E-3,1.282817032E-2,1.832595794E-3
1.884947716E0,-1.099557430E-2,1.221730467E-2,1.221730490E-3
1.886982255E0,-1.038470957E-2,1.343903504E-2,1.221730490E-3
1.889006062E0,-9.162978269E-3,1.404990070E-2,2.443460980E-3
1.891005293E0,-9.773843922E-3,1.404990070E-2,4.886921961E-3
1.893074331E0,-9.162978269E-3,1.343903504E-2,4.886921961E-3
1.895108101E0,-1.099557430E-2,1.527163107E-2,4.276056774E-3
1.897224139E0,-9.162978269E-3,1.221730467E-2,4.276056774E-3
1.899210831E0,-9.773843922E-3,1.343903504E-2,1.221730490E-3
1.901279754E0,-1.038470957E-2,1.404990070E-2,4.886921961E-3
1.903313716E0,-1.160643995E-2,1.282817032E-2,3.054326167E-3
1.905383024E0,-1.038470957E-2,1.282817032E-2,4.276056774E-3
1.907456254E0,-1.221730467E-2,9.773843922E-3,6.719517522E-3
1.909420524E0,-1.038470957E-2,1.282817032E-2,2.443460980E-3
1.911419754E0,-1.099557430E-2,8.552113548E-3,1.832595794E-3
1.913488331E0,-1.404990070E-2,9.162978269E-3,3.665191587E-3
1.915522447E0,-1.160643995E-2,9.773843922E-3,1.832595794E-3
1.917639485E0,-1.343903504E-2,7.941247895E-3,3.054326167E-3
1.919625985E0,-1.527163107E-2,7.941247895E-3,3.665191587E-3
1.921694831E0,-1.466076635E-2,6.108652335E-3,3.054326167E-3
1.923728639E0,-1.282817032E-2,6.108652335E-3,1.221730490E-3
1.925798677E0,-1.588249579E-2,7.330383174E-3,3.054326167E-3
1.927832716E0,-1.466076635E-2,8.552113548E-3,1.832595794E-3
1.929856793E0,-1.343903504E-2,7.330383174E-3,1.221730490E-3
1.931856216E0,-1.404990070E-2,7.330383174E-3,1.832595794E-3
1.933925177E0,-1.832595654E-2,9.162978269E-3,0.000000000E0
1.935959677E0,-1.710422710E-2,8.552113548E-3,1.832595794E-3
1.938075947E0,-1.832595654E-2,7.941247895E-3,-1.221730490E-3
1.940062831E0,-1.893682219E-2,9.773843922E-3,1.221730490E-3
1.942131600E0,-1.649336144E-2,1.099557430E-2,-4.886921961E-3
1.944165293E0,-1.893682219E-2,9.162978269E-3,1.221730490E-3
1.946235370E0,-2.076941915E-2,9.773843922E-3,-1.221730490E-3
1.948307985E0,-2.076941915E-2,7.330383174E-3,-6.108652451E-4
1.950270716E0,-2.076941915E-2,8.552113548E-3,-1.832595794E-3
1.952270293E0,-2.015855350E-2,8.552113548E-3,-1.832595794E-3
1.954338677E0,-2.015855350E-2,8.552113548E-3,-2.443460980E-3
1.956373293E0,-1.954768784E-2,7.941247895E-3,-2.443460980E-3
1.958489947E0,-2.076941915E-2,7.941247895E-3,0.000000000E0
1.960476870E0,-2.015855350E-2,9.162978269E-3,-3.054326167E-3
1.962545600E0,-2.138028294E-2,8.552113548E-3,-4.276056774E-3
1.964580485E0,-2.076941915E-2,8.552113548E-3,-1.221730490E-3
1.966650216E0,-1.954768784E-2,8.552113548E-3,-1.832595794E-3
1.968684908E0,-2.076941915E-2,9.773843922E-3,-4.886921961E-3
1.970709408E0,-2.015855350E-2,1.099557430E-2,-4.276056774E-3
1.972710293E0,-2.199114859E-2,1.099557430E-2,-7.330383174E-3
1.974777716E0,-2.443460934E-2,9.162978269E-3,-4.276056774E-3
1.976812716E0,-2.199114859E-2,1.160643995E-2,-4.276056774E-3
1.978929062E0,-1.893682219E-2,1.221730467E-2,-6.108652335E-3
1.980916023E0,-2.138028294E-2,1.099557430E-2,-4.886921961E-3
1.982985254E0,-2.015855350E-2,9.162978269E-3,-4.886921961E-3
1.985019831E0,-2.138028294E-2,9.162978269E-3,-4.886921961E-3
1.987089254E0,-1.954768784E-2,1.160643995E-2,-4.276056774E-3
1.989162485E0,-1.832595654E-2,1.099557430E-2,-7.941247895E-3
1.991125177E0,-2.138028294E-2,1.099557430E-2,-3.054326167E-3
1.993124870E0,-1.954768784E-2,8.552113548E-3,-4.276056774E-3
1.995193793E0,-2.076941915E-2,8.552113548E-3,-1.221730490E-3
1.997229254E0,-2.138028294E-2,9.773843922E-3,-4.276056774E-3
1.999345562E0,-1.771509275E-2,1.160643995E-2,-3.665191587E-3
2.001332639E0,-1.954768784E-2,1.038470957E-2,1.221730490E-3
2.003402369E0,-1.710422710E-2,1.099557430E-2,-3.054326167E-3
2.005437562E0,-1.771509275E-2,1.099557430E-2,-3.054326167E-3
2.007506869E0,-1.404990070E-2,1.099557430E-2,-2.443460980E-3
2.009541293E0,-1.527163107E-2,1.038470957E-2,-2.443460980E-3
2.011565523E0,-1.282817032E-2,7.941247895E-3,-1.832595794E-3
2.013564869E0,-1.404990070E-2,9.773843922E-3,-1.832595794E-3
2.015634062E0,-1.527163107E-2,9.162978269E-3,-3.665191587E-3
2.017668216E0,-1.466076635E-2,7.941247895E-3,-1.221730490E-3
2.019785677E0,-1.221730467E-2,7.330383174E-3,-3.054326167E-3
2.021771562E0,-1.160643995E-2,6.719517522E-3,-2.443460980E-3
2.023840331E0,-1.221730467E-2,6.719517522E-3,-1.221730490E-3
2.025874600E0,-9.773843922E-3,7.330383174E-3,-3.054326167E-3
2.027942639E0,-8.552113548E-3,5.497787148E-3,-2.443460980E-3
2.030015869E0,-9.162978269E-3,4.886921961E-3,-1.221730490E-3
2.031979139E0,-1.038470957E-2,4.276056774E-3,-4.886921961E-3
2.033979062E0,-8.552113548E-3,4.886921961E-3,-5.497787148E-3
2.036048216E0,-9.773843922E-3,5.497787148E-3,-1.832595794E-3
2.038082792E0,-5.497787148E-3,4.276056774E-3,-1.221730490E-3
2.040199292E0,-4.276056774E-3,5.497787148E-3,-5.497787148E-3
2.042186100E0,-5.497787148E-3,4.886921961E-3,-1.832595794E-3
2.044255331E0,-6.719517522E-3,3.054326167E-3,-3.054326167E-3
2.046289177E0,-3.665191587E-3,4.886921961E-3,-4.276056774E-3
2.048358639E0,-4.886921961E-3,2.443460980E-3,-6.108652451E-4
2.050393139E0,-3.665191587E-3,3.054326167E-3,-5.497787148E-3
2.052417292E0,-1.832595794E-3,4.886921961E-3,-6.108652335E-3
2.054416831E0,-1.221730490E-3,3.665191587E-3,6.108652451E-4
2.056485369E0,-6.108652451E-4,5.497787148E-3,-5.497787148E-3
2.058519792E0,-1.832595794E-3,4.276056774E-3,-1.832595794E-3
2.060636369E0,-6.108652451E-4,4.276056774E-3,-3.665191587E-3
2.062623023E0,1.221730490E-3,6.719517522E-3,-1.832595794E-3
2.064692138E0,-6.108652451E-4,7.941247895E-3,-2.443460980E-3
2.066726100E0,1.832595794E-3,8.552113548E-3,-4.276056774E-3
2.068794446E0,6.108652451E-4,8.552113548E-3,-3.665191587E-3
2.070867638E0,3.054326167E-3,8.552113548E-3,-4.886921961E-3
2.072830446E0,2.443460980E-3,8.552113548E-3,-1.832595794E-3
2.074829523E0,0.000000000E0,8.552113548E-3,-4.276056774E-3
2.076898446E0,1.832595794E-3,9.773843922E-3,-4.886921961E-3
2.078932908E0,4.886921961E-3,1.099557430E-2,-2.443460980E-3
2.081048946E0,4.886921961E-3,9.773843922E-3,-6.108652451E-4
2.083036869E0,3.054326167E-3,1.160643995E-2,-2.443460980E-3
2.085106485E0,3.665191587E-3,1.160643995E-2,-2.443460980E-3
2.087140138E0,5.497787148E-3,1.282817032E-2,-3.665191587E-3
2.089209408E0,5.497787148E-3,1.221730467E-2,-3.665191587E-3
2.091243831E0,5.497787148E-3,1.221730467E-2,-2.443460980E-3
2.093267446E0,6.719517522E-3,1.466076635E-2,-1.832595794E-3
2.095484677E0,9.773843922E-3,1.282817032E-2,-4.886921961E-3
2.097321985E0,6.108652335E-3,1.466076635E-2,-2.443460980E-3
2.099322523E0,9.162978269E-3,1.527163107E-2,-2.443460980E-3
2.101439484E0,9.162978269E-3,1.404990070E-2,-1.832595794E-3
2.103426638E0,7.330383174E-3,1.466076635E-2,-3.054326167E-3
2.105495138E0,9.773843922E-3,1.404990070E-2,-3.054326167E-3
2.107530484E0,8.552113548E-3,1.404990070E-2,-5.497787148E-3
2.109599023E0,1.099557430E-2,1.527163107E-2,-3.665191587E-3
2.111671908E0,1.099557430E-2,1.343903504E-2,-3.665191587E-3
2.113637061E0,1.099557430E-2,1.160643995E-2,-6.108652451E-4
2.115636638E0,9.773843922E-3,1.282817032E-2,-1.832595794E-3
2.117704792E0,1.160643995E-2,1.527163107E-2,-2.443460980E-3
2.119739561E0,1.221730467E-2,1.221730467E-2,-3.054326167E-3
2.121856754E0,1.282817032E-2,1.160643995E-2,-5.497787148E-3
2.123844792E0,1.404990070E-2,1.160643995E-2,-3.665191587E-3
2.125912754E0,1.343903504E-2,1.160643995E-2,-4.886921961E-3
2.127946715E0,1.466076635E-2,1.099557430E-2,-6.719517522E-3
2.130016446E0,1.221730467E-2,1.099557430E-2,-1.832595794E-3
2.132050638E0,1.404990070E-2,1.038470957E-2,-3.054326167E-3
2.134075331E0,1.466076635E-2,1.160643995E-2,-3.665191587E-3
2.136075715E0,1.404990070E-2,1.038470957E-2,-6.719517522E-3
2.138143023E0,1.221730467E-2,1.404990070E-2,-4.276056774E-3
2.140176638E0,1.527163107E-2,1.221730467E-2,-6.108652335E-3
2.142292792E0,1.343903504E-2,1.588249579E-2,-4.886921961E-3
2.144279561E0,1.466076635E-2,1.282817032E-2,-3.054326167E-3
2.146348677E0,1.282817032E-2,1.404990070E-2,-5.497787148E-3
2.148382984E0,1.404990070E-2,1.527163107E-2,-1.832595794E-3
2.150451830E0,1.343903504E-2,1.404990070E-2,-5.497787148E-3
2.152525292E0,1.527163107E-2,1.282817032E-2,-3.665191587E-3
2.154489138E0,1.343903504E-2,1.466076635E-2,-3.054326167E-3
2.156488830E0,1.221730467E-2,1.527163107E-2,-4.886921961E-3
2.158557523E0,1.404990070E-2,1.466076635E-2,-4.886921961E-3
2.160591792E0,1.282817032E-2,1.649336144E-2,-1.221730490E-3
2.162708407E0,1.038470957E-2,1.527163107E-2,-5.497787148E-3
2.164694715E0,1.282817032E-2,1.527163107E-2,-2.443460980E-3
2.166763792E0,1.588249579E-2,1.343903504E-2,-3.054326167E-3
2.168797753E0,1.588249579E-2,1.404990070E-2,-4.886921961E-3
2.170866177E0,1.527163107E-2,1.099557430E-2,-1.832595794E-3
2.172900023E0,1.649336144E-2,1.038470957E-2,-3.665191587E-3
2.174923946E0,1.588249579E-2,1.099557430E-2,-4.276056774E-3
2.176923753E0,1.893682219E-2,9.773843922E-3,-3.665191587E-3
2.178992061E0,1.832595654E-2,9.162978269E-3,-3.665191587E-3
2.181026446E0,1.771509275E-2,9.773843922E-3,-5.497787148E-3
2.183142484E0,2.138028294E-2,8.552113548E-3,-7.330383174E-3
2.185129561E0,2.199114859E-2,5.497787148E-3,-6.719517522E-3
2.187198907E0,2.138028294E-2,6.719517522E-3,-4.886921961E-3
2.189232907E0,2.076941915E-2,4.886921961E-3,-3.054326167E-3
2.191302638E0,2.321287990E-2,3.054326167E-3,-5.497787148E-3
2.193375330E0,2.260201424E-2,3.665191587E-3,-3.665191587E-3
2.195339907E0,2.321287990E-2,3.665191587E-3,-4.886921961E-3
2.197339484E0,2.015855350E-2,2.443460980E-3,-3.665191587E-3
2.199408446E0,2.199114859E-2,2.443460980E-3,-1.832595794E-3
2.201443138E0,2.565634064E-2,1.832595794E-3,-1.832595794E-3
2.203559369E0,2.260201424E-2,1.221730490E-3,-2.443460980E-3
2.205545407E0,2.260201424E-2,1.221730490E-3,-2.443460980E-3
2.207615023E0,1.954768784E-2,6.108652451E-4,-3.665191587E-3
2.209649176E0,2.076941915E-2,1.221730490E-3,6.108652451E-4
2.211717561E0,2.076941915E-2,6.108652451E-4,-2.443460980E-3
2.213752446E0,1.893682219E-2,6.108652451E-4,-4.276056774E-3
2.215776099E0,1.771509275E-2,-1.832595794E-3,6.108652451E-4
2.217775215E0,1.527163107E-2,0.000000000E0,0.000000000E0
2.219844638E0,1.710422710E-2,0.000000000E0,-2.443460980E-3
2.221879907E0,1.527163107E-2,2.443460980E-3,-1.832595794E-3
2.223995792E0,1.649336144E-2,-6.108652451E-4,-2.443460980E-3
2.225983061E0,1.282817032E-2,0.000000000E0,-3.665191587E-3
2.228051446E0,1.221730467E-2,-3.665191587E-3,-1.832595794E-3
2.230085215E0,1.221730467E-2,-3.054326167E-3,-1.832595794E-3
2.232153907E0,1.282817032E-2,-4.886921961E-3,-3.665191587E-3
2.234225638E0,7.941247895E-3,-5.497787148E-3,-1.221730490E-3
2.236188561E0,7.330383174E-3,-4.886921961E-3,-2.443460980E-3
2.238188330E0,1.038470957E-2,-6.719517522E-3,-5.497787148E-3
2.240257138E0,7.941247895E-3,-9.773843922E-3,-5.497787148E-3
2.242292176E0,4.276056774E-3,-9.773843922E-3,-3.665191587E-3
2.244408407E0,6.719517522E-3,-6.719517522E-3,-7.941247895E-3
2.246395599E0,5.497787148E-3,-6.719517522E-3,-4.276056774E-3
2.248464445E0,6.719517522E-3,-6.719517522E-3,-3.665191587E-3
2.250498907E0,6.108652335E-3,-4.276056774E-3,-5.497787148E-3
2.252568407E0,6.108652335E-3,-3.054326167E-3,-4.276056774E-3
2.254602792E0,4.886921961E-3,-3.665191587E-3,-3.054326167E-3
2.256626869E0,5.497787148E-3,-2.443460980E-3,-7.330383174E-3
2.258627445E0,6.719517522E-3,-1.221730490E-3,-6.719517522E-3
2.260696138E0,4.276056774E-3,-1.832595794E-3,-4.276056774E-3
2.262730715E0,6.719517522E-3,-1.221730490E-3,-7.330383174E-3
2.264847445E0,6.108652335E-3,-1.832595794E-3,-7.330383174E-3
2.266834484E0,7.330383174E-3,-1.221730490E-3,-7.330383174E-3
2.268903176E0,6.719517522E-3,0.000000000E0,-1.099557430E-2
2.270937907E0,7.330383174E-3,2.443460980E-3,-7.330383174E-3
2.273006368E0,5.497787148E-3,4.276056774E-3,-7.330383174E-3
2.275079484E0,5.497787148E-3,4.276056774E-3,-8.552113548E-3
2.277043253E0,3.054326167E-3,4.886921961E-3,-4.886921961E-3
2.279042638E0,4.886921961E-3,4.886921961E-3,-6.719517522E-3
2.281112407E0,3.054326167E-3,5.497787148E-3,-7.330383174E-3
2.283146868E0,2.443460980E-3,6.108652335E-3,-4.886921961E-3
2.285263522E0,3.054326167E-3,4.886921961E-3,-5.497787148E-3
2.287250791E0,3.665191587E-3,4.886921961E-3,-7.941247895E-3
2.289320330E0,2.443460980E-3,6.719517522E-3,-4.886921961E-3
2.291369791E0,2.443460980E-3,7.330383174E-3,-4.886921961E-3
2.293425061E0,4.276056774E-3,6.719517522E-3,-7.941247895E-3
2.295459330E0,6.108652335E-3,7.330383174E-3,-4.276056774E-3
2.297483445E0,3.054326167E-3,6.719517522E-3,-5.497787148E-3
2.299482753E0,3.665191587E-3,6.108652335E-3,-5.497787148E-3
2.301552561E0,5.497787148E-3,6.108652335E-3,-5.497787148E-3
2.303586099E0,3.665191587E-3,6.719517522E-3,-5.497787148E-3
2.305702138E0,4.886921961E-3,5.497787148E-3,-7.330383174E-3
2.307688945E0,5.497787148E-3,6.108652335E-3,-4.276056774E-3
2.309758753E0,3.665191587E-3,5.497787148E-3,-3.054326167E-3
2.311793176E0,4.886921961E-3,6.108652335E-3,-6.719517522E-3
2.313862753E0,2.443460980E-3,4.276056774E-3,-5.497787148E-3
2.315935253E0,2.443460980E-3,4.276056774E-3,-5.497787148E-3
2.317897599E0,1.221730490E-3,6.108652335E-3,-4.886921961E-3
2.319897330E0,6.108652451E-4,5.497787148E-3,-4.886921961E-3
2.321966099E0,1.832595794E-3,8.552113548E-3,-6.719517522E-3
2.324001061E0,-6.108652451E-4,7.941247895E-3,-4.886921961E-3
2.326117407E0,-1.832595794E-3,9.162978269E-3,-2.443460980E-3
2.328104984E0,6.108652451E-4,8.552113548E-3,-5.497787148E-3
2.330174061E0,6.108652451E-4,9.162978269E-3,-6.108652335E-3
2.332207984E0,1.221730490E-3,9.162978269E-3,-1.832595794E-3
2.334277791E0,1.221730490E-3,9.162978269E-3,-3.665191587E-3
2.336311984E0,-6.108652451E-4,8.552113548E-3,-3.665191587E-3
2.338336561E0,0.000000000E0,9.773843922E-3,-3.054326167E-3
2.340551868E0,1.832595794E-3,1.282817032E-2,-3.665191587E-3
2.342389137E0,-1.221730490E-3,1.099557430E-2,-3.054326167E-3
2.344388022E0,-6.108652451E-4,1.282817032E-2,-1.221730490E-3
2.346504291E0,-1.221730490E-3,1.466076635E-2,-2.443460980E-3
2.348491176E0,-6.108652451E-4,1.466076635E-2,-2.443460980E-3
2.350559637E0,-6.108652451E-4,1.343903504E-2,-1.221730490E-3
2.352594176E0,-2.443460980E-3,1.404990070E-2,0.000000000E0
2.354663637E0,1.221730490E-3,1.343903504E-2,-1.832595794E-3
2.356736599E0,-1.832595794E-3,1.404990070E-2,6.108652451E-4
2.358701522E0,-3.054326167E-3,1.404990070E-2,-1.832595794E-3
2.360700907E0,-2.443460980E-3,1.466076635E-2,-4.276056774E-3
2.362770137E0,-3.665191587E-3,1.343903504E-2,-4.276056774E-3
2.364804868E0,-3.665191587E-3,1.466076635E-2,-1.832595794E-3
2.366921714E0,-2.443460980E-3,1.527163107E-2,-1.832595794E-3
2.368908522E0,-3.665191587E-3,1.404990070E-2,-3.054326167E-3
2.370977599E0,-3.054326167E-3,1.221730467E-2,-2.443460980E-3
2.373012176E0,-3.054326167E-3,1.404990070E-2,-5.497787148E-3
2.375081407E0,-6.108652335E-3,1.221730467E-2,-1.832595794E-3
2.377116137E0,-5.497787148E-3,9.162978269E-3,-3.054326167E-3
2.379140060E0,-6.108652335E-3,9.162978269E-3,-1.832595794E-3
2.381139637E0,-3.665191587E-3,9.162978269E-3,-1.832595794E-3
2.383209522E0,-4.276056774E-3,8.552113548E-3,-3.665191587E-3
2.385244099E0,-7.941247895E-3,7.941247895E-3,-2.443460980E-3
2.387360060E0,-3.665191587E-3,9.162978269E-3,-2.443460980E-3
2.389347214E0,-6.719517522E-3,7.941247895E-3,-2.443460980E-3
2.391415791E0,-4.886921961E-3,8.552113548E-3,-3.665191587E-3
2.393449983E0,-6.719517522E-3,6.719517522E-3,-3.054326167E-3
2.395518522E0,-6.108652335E-3,8.552113548E-3,0.000000000E0
2.397591445E0,-6.108652335E-3,8.552113548E-3,-3.665191587E-3
2.399555560E0,-4.886921961E-3,8.552113548E-3,-1.221730490E-3
2.401554791E0,-6.719517522E-3,7.941247895E-3,-3.054326167E-3
2.403623368E0,-4.886921961E-3,1.099557430E-2,-3.054326167E-3
2.405657791E0,-4.276056774E-3,1.099557430E-2,-6.108652451E-4
2.407774022E0,-4.276056774E-3,1.099557430E-2,-2.443460980E-3
2.409760906E0,-1.832595794E-3,1.221730467E-2,-1.832595794E-3
2.411830022E0,-3.665191587E-3,1.221730467E-2,-1.832595794E-3
2.413865406E0,-6.108652451E-4,1.466076635E-2,-2.443460980E-3
2.415932906E0,-1.221730490E-3,1.466076635E-2,0.000000000E0
2.417968983E0,-1.832595794E-3,1.527163107E-2,6.108652451E-4
2.419993137E0,0.000000000E0,1.649336144E-2,-1.221730490E-3
2.421993368E0,-1.221730490E-3,1.710422710E-2,-3.054326167E-3
2.424062637E0,-3.665191587E-3,1.771509275E-2,6.108652451E-4
2.426096983E0,6.108652451E-4,1.710422710E-2,-1.221730490E-3
2.428214676E0,-2.443460980E-3,1.710422710E-2,6.108652451E-4
2.430201752E0,0.000000000E0,1.710422710E-2,-2.443460980E-3
2.432272483E0,-3.054326167E-3,1.588249579E-2,0.000000000E0
2.434305829E0,6.108652451E-4,1.527163107E-2,-6.108652451E-4
2.436375368E0,-6.108652451E-4,1.404990070E-2,-2.443460980E-3
2.438448060E0,-1.221730490E-3,1.588249579E-2,-1.832595794E-3
2.440415176E0,-1.221730490E-3,1.099557430E-2,6.108652451E-4
2.442414829E0,-1.221730490E-3,1.343903504E-2,-5.497787148E-3
2.444483445E0,-6.108652451E-4,1.160643995E-2,-6.108652335E-3
2.446518329E0,-1.832595794E-3,9.162978269E-3,-4.276056774E-3
2.448635483E0,-3.054326167E-3,9.162978269E-3,-1.221730490E-3
2.450622175E0,-3.054326167E-3,1.038470957E-2,-5.497787148E-3
2.452691945E0,-4.276056774E-3,9.162978269E-3,-2.443460980E-3
2.454727099E0,-4.886921961E-3,9.773843922E-3,-4.276056774E-3
2.456795945E0,-6.108652335E-3,7.330383174E-3,-5.497787148E-3
2.458830637E0,-4.276056774E-3,9.162978269E-3,-8.552113548E-3
2.460855060E0,-5.497787148E-3,7.941247895E-3,-3.665191587E-3
2.462854522E0,-6.108652335E-3,6.108652335E-3,-7.330383174E-3
2.464922983E0,-7.330383174E-3,6.719517522E-3,-4.886921961E-3
2.466957868E0,-8.552113548E-3,7.330383174E-3,-5.497787148E-3
2.469073983E0,-6.108652335E-3,7.941247895E-3,-7.330383174E-3
2.471060829E0,-9.773843922E-3,7.330383174E-3,-5.497787148E-3
2.473130175E0,-9.162978269E-3,6.719517522E-3,-5.497787148E-3
2.475164445E0,-1.038470957E-2,6.719517522E-3,-8.552113548E-3
2.477233406E0,-8.552113548E-3,8.552113548E-3,-9.773843922E-3
2.479305637E0,-1.343903504E-2,6.719517522E-3,-4.276056774E-3
2.481267906E0,-9.773843922E-3,9.773843922E-3,-9.162978269E-3
2.483267522E0,-1.099557430E-2,7.941247895E-3,-4.886921961E-3
2.485336483E0,-1.099557430E-2,7.941247895E-3,-4.886921961E-3
2.487371098E0,-1.343903504E-2,9.162978269E-3,-7.330383174E-3
2.489487406E0,-1.099557430E-2,7.330383174E-3,-7.941247895E-3
2.491473829E0,-1.282817032E-2,7.330383174E-3,-3.665191587E-3
2.493542983E0,-1.099557430E-2,8.552113548E-3,-7.330383174E-3
2.495577098E0,-1.404990070E-2,7.941247895E-3,-4.276056774E-3
2.497646098E0,-1.038470957E-2,8.552113548E-3,-3.665191587E-3
2.499680791E0,-1.343903504E-2,9.162978269E-3,-1.832595794E-3
2.501704445E0,-1.221730467E-2,6.719517522E-3,-3.665191587E-3
2.503703983E0,-9.162978269E-3,6.719517522E-3,-1.832595794E-3
2.505773175E0,-1.160643995E-2,7.330383174E-3,-3.665191587E-3
2.507807637E0,-9.162978269E-3,5.497787148E-3,-1.221730490E-3
2.509924329E0,-9.773843922E-3,6.108652335E-3,-3.665191587E-3
2.511910752E0,-9.773843922E-3,4.886921961E-3,-3.665191587E-3
2.513979675E0,-9.162978269E-3,3.665191587E-3,-3.665191587E-3
2.516014098E0,-6.719517522E-3,5.497787148E-3,-4.276056774E-3
2.518082675E0,-9.162978269E-3,4.276056774E-3,-4.276056774E-3
2.520155252E0,-8.552113548E-3,4.276056774E-3,-6.108652451E-4
2.522118560E0,-9.162978269E-3,3.665191587E-3,-6.108652335E-3
2.524118367E0,-7.330383174E-3,3.665191587E-3,-3.054326167E-3
2.526187137E0,-9.162978269E-3,3.054326167E-3,-1.832595794E-3
2.528221598E0,-6.108652335E-3,4.276056774E-3,-3.054326167E-3
2.530338329E0,-1.038470957E-2,3.665191587E-3,-1.221730490E-3
2.532326291E0,-7.330383174E-3,3.665191587E-3,-1.832595794E-3
2.534394906E0,-1.038470957E-2,4.276056774E-3,-1.832595794E-3
2.536429675E0,-9.162978269E-3,4.276056774E-3,-6.108652451E-4
2.538498944E0,-6.719517522E-3,3.665191587E-3,0.000000000E0
2.540533791E0,-6.719517522E-3,1.832595794E-3,-3.054326167E-3
2.542557521E0,-7.941247895E-3,3.665191587E-3,0.000000000E0
2.544558098E0,-7.941247895E-3,3.054326167E-3,6.108652451E-4
2.546627329E0,-7.941247895E-3,0.000000000E0,-3.054326167E-3
2.548661752E0,-1.038470957E-2,6.108652451E-4,-3.054326167E-3
2.550779214E0,-6.719517522E-3,3.054326167E-3,-1.832595794E-3
2.552765790E0,-5.497787148E-3,3.054326167E-3,-2.443460980E-3
2.554835290E0,-9.773843922E-3,6.108652451E-4,-1.832595794E-3
2.556870137E0,-9.162978269E-3,1.832595794E-3,0.000000000E0
2.558939790E0,-7.330383174E-3,3.054326167E-3,-1.832595794E-3
2.561011983E0,-1.343903504E-2,1.221730490E-3,6.108652451E-4
2.562976675E0,-1.282817032E-2,2.443460980E-3,6.108652451E-4
2.564976329E0,-1.404990070E-2,1.221730490E-3,-1.221730490E-3
2.567045329E0,-1.466076635E-2,4.276056774E-3,-3.054326167E-3
2.569079675E0,-1.221730467E-2,3.054326167E-3,0.000000000E0
2.571196867E0,-1.404990070E-2,3.054326167E-3,6.108652451E-4
2.573183790E0,-1.221730467E-2,3.054326167E-3,-6.108652451E-4
2.575252713E0,-1.343903504E-2,2.443460980E-3,2.443460980E-3
2.577287713E0,-1.343903504E-2,3.054326167E-3,-2.443460980E-3
2.579356867E0,-1.404990070E-2,2.443460980E-3,3.054326167E-3
2.581390906E0,-1.588249579E-2,3.665191587E-3,-6.108652451E-4
2.583415137E0,-1.527163107E-2,4.276056774E-3,-2.443460980E-3
2.585630752E0,-1.466076635E-2,2.443460980E-3,-1.221730490E-3
2.587467598E0,-1.588249579E-2,3.665191587E-3,-2.443460980E-3
2.589467483E0,-1.404990070E-2,5.497787148E-3,-1.221730490E-3
2.591583790E0,-1.466076635E-2,3.665191587E-3,-6.108652451E-4
2.593570983E0,-1.343903504E-2,6.108652335E-3,-1.221730490E-3
2.595641060E0,-1.343903504E-2,4.276056774E-3,-1.221730490E-3
2.597675713E0,-1.343903504E-2,6.719517522E-3,1.832595794E-3
2.599744521E0,-1.282817032E-2,4.886921961E-3,0.000000000E0
2.601817713E0,-1.404990070E-2,8.552113548E-3,-1.832595794E-3
2.603782252E0,-1.527163107E-2,4.886921961E-3,-4.276056774E-3
2.605781752E0,-1.404990070E-2,7.941247895E-3,-2.443460980E-3
2.607850906E0,-1.404990070E-2,7.330383174E-3,-2.443460980E-3
2.609884790E0,-1.221730467E-2,6.108652335E-3,-2.443460980E-3
2.612000790E0,-1.404990070E-2,4.886921961E-3,-2.443460980E-3
2.613988290E0,-1.160643995E-2,6.108652335E-3,-5.497787148E-3
2.616057059E0,-1.343903504E-2,5.497787148E-3,-1.832595794E-3
2.618091136E0,-1.404990070E-2,6.108652335E-3,-1.221730490E-3
2.620159790E0,-1.160643995E-2,6.108652335E-3,-1.832595794E-3
2.622194483E0,-1.343903504E-2,4.886921961E-3,-6.108652451E-4
2.624218406E0,-1.282817032E-2,8.552113548E-3,-1.832595794E-3
2.626218906E0,-1.160643995E-2,5.497787148E-3,-6.108652451E-4
2.628287713E0,-1.221730467E-2,8.552113548E-3,-3.054326167E-3
2.630322059E0,-1.099557430E-2,8.552113548E-3,-3.054326167E-3
2.632438752E0,-1.038470957E-2,8.552113548E-3,-6.108652451E-4
2.634426136E0,-1.343903504E-2,7.330383174E-3,-1.221730490E-3
2.636494752E0,-1.160643995E-2,8.552113548E-3,-3.665191587E-3
2.638529406E0,-1.404990070E-2,9.162978269E-3,0.000000000E0
2.640598675E0,-1.221730467E-2,8.552113548E-3,-1.832595794E-3
2.642672175E0,-1.038470957E-2,7.941247895E-3,-1.832595794E-3
2.644634636E0,-1.038470957E-2,8.552113548E-3,-6.108652451E-4
2.646634521E0,-8.552113548E-3,9.773843922E-3,-2.443460980E-3
2.648703867E0,-9.773843922E-3,9.162978269E-3,-3.054326167E-3
2.650738175E0,-1.099557430E-2,9.162978269E-3,-1.221730490E-3
2.652854405E0,-9.773843922E-3,9.773843922E-3,1.221730490E-3
2.654841213E0,-1.160643995E-2,9.162978269E-3,6.108652451E-4
2.656909636E0,-9.773843922E-3,1.160643995E-2,-3.054326167E-3
2.658943790E0,-9.773843922E-3,8.552113548E-3,-6.108652451E-4
2.661012790E0,-1.221730467E-2,1.038470957E-2,-1.221730490E-3
2.663047290E0,-1.221730467E-2,1.160643995E-2,-2.443460980E-3
2.665070405E0,-1.160643995E-2,1.099557430E-2,6.108652451E-4
2.667070367E0,-1.282817032E-2,1.099557430E-2,3.054326167E-3
2.669138867E0,-1.404990070E-2,1.099557430E-2,-2.443460980E-3
2.671172905E0,-1.221730467E-2,1.282817032E-2,-2.443460980E-3
2.673289752E0,-1.282817032E-2,1.221730467E-2,-1.221730490E-3
2.675276559E0,-1.466076635E-2,1.527163107E-2,6.108652451E-4
2.677345675E0,-1.343903504E-2,1.404990070E-2,-1.832595794E-3
2.679379328E0,-1.588249579E-2,1.649336144E-2,-6.108652451E-4
2.681448905E0,-1.404990070E-2,1.710422710E-2,1.221730490E-3
2.683521598E0,-1.221730467E-2,1.710422710E-2,6.108652451E-4
2.685484982E0,-1.038470957E-2,2.015855350E-2,-2.443460980E-3
2.687484905E0,-1.038470957E-2,2.015855350E-2,1.832595794E-3
2.689554521E0,-1.160643995E-2,2.138028294E-2,2.443460980E-3
2.691589098E0,-1.099557430E-2,1.893682219E-2,6.108652451E-4
2.693704828E0,-1.160643995E-2,2.015855350E-2,4.276056774E-3
2.695692021E0,-9.162978269E-3,2.138028294E-2,3.665191587E-3
2.697761636E0,-8.552113548E-3,2.015855350E-2,-1.221730490E-3
2.699809828E0,-6.719517522E-3,2.138028294E-2,1.832595794E-3
2.701864944E0,-7.941247895E-3,2.015855350E-2,1.221730490E-3
2.703899098E0,-6.108652335E-3,1.832595654E-2,1.221730490E-3
2.705923098E0,-6.719517522E-3,1.771509275E-2,1.221730490E-3
2.707922828E0,-6.108652335E-3,1.710422710E-2,1.221730490E-3
2.709991751E0,-4.276056774E-3,1.710422710E-2,-1.832595794E-3
2.712026482E0,-5.497787148E-3,1.527163107E-2,3.054326167E-3
2.714143213E0,-4.886921961E-3,1.588249579E-2,6.108652451E-4
2.716130213E0,-6.108652451E-4,1.588249579E-2,-1.221730490E-3
2.718199405E0,-6.108652451E-4,1.527163107E-2,1.832595794E-3
2.720233521E0,-6.108652451E-4,1.466076635E-2,-1.221730490E-3
2.722303021E0,-6.108652451E-4,1.343903504E-2,6.108652451E-4
2.724377636E0,1.221730490E-3,1.466076635E-2,-6.108652451E-4
2.726342097E0,0.000000000E0,1.588249579E-2,1.221730490E-3
2.728341213E0,0.000000000E0,1.466076635E-2,-6.108652451E-4
2.730410328E0,-6.108652451E-4,1.527163107E-2,6.108652451E-4
2.732445290E0,-3.054326167E-3,1.588249579E-2,2.443460980E-3
2.734561097E0,1.221730490E-3,1.649336144E-2,1.832595794E-3
2.736547405E0,1.221730490E-3,1.649336144E-2,6.108652451E-4
2.738615790E0,6.108652451E-4,1.527163107E-2,3.054326167E-3
2.740649867E0,-3.054326167E-3,1.527163107E-2,1.221730490E-3
2.742718444E0,-3.054326167E-3,1.649336144E-2,1.221730490E-3
2.744752790E0,-1.832595794E-3,1.466076635E-2,-6.108652451E-4
2.746777290E0,-6.108652335E-3,1.404990070E-2,3.054326167E-3
2.748776713E0,-3.054326167E-3,1.404990070E-2,1.221730490E-3
2.750846020E0,-4.276056774E-3,1.404990070E-2,1.832595794E-3
2.752880636E0,-6.719517522E-3,1.282817032E-2,6.108652451E-4
2.754997982E0,-7.330383174E-3,1.221730467E-2,1.832595794E-3
2.756984405E0,-8.552113548E-3,1.160643995E-2,-6.108652451E-4
2.759054136E0,-9.773843922E-3,7.330383174E-3,-6.108652451E-4
2.761088751E0,-1.038470957E-2,6.719517522E-3,-1.221730490E-3
2.763158059E0,-1.221730467E-2,4.886921961E-3,6.108652451E-4
2.765230751E0,-9.162978269E-3,3.665191587E-3,-1.832595794E-3
2.767195251E0,-1.038470957E-2,1.221730490E-3,-4.886921961E-3
2.769194059E0,-1.099557430E-2,1.221730490E-3,-3.665191587E-3
2.771262982E0,-1.221730467E-2,-2.443460980E-3,-2.443460980E-3
2.773297713E0,-1.160643995E-2,-2.443460980E-3,-3.665191587E-3
2.775413482E0,-1.160643995E-2,-3.665191587E-3,-6.108652335E-3
2.777400674E0,-1.099557430E-2,-3.054326167E-3,-3.665191587E-3
2.779469328E0,-1.404990070E-2,-3.054326167E-3,-3.054326167E-3
2.781503790E0,-1.282817032E-2,-3.665191587E-3,-4.886921961E-3
2.783572213E0,-9.773843922E-3,-1.221730490E-3,-1.832595794E-3
2.785606290E0,-1.160643995E-2,-4.886921961E-3,-3.665191587E-3
2.787629443E0,-1.038470957E-2,-1.832595794E-3,-6.108652335E-3
2.789628636E0,-9.773843922E-3,-2.443460980E-3,-3.665191587E-3
2.791697290E0,-9.773843922E-3,-1.832595794E-3,-6.719517522E-3
2.793731251E0,-6.108652335E-3,-6.108652451E-4,-5.497787148E-3
2.795847020E0,-7.941247895E-3,0.000000000E0,-2.443460980E-3
2.797833097E0,-8.552113548E-3,1.221730490E-3,-4.276056774E-3
2.799901290E0,-9.162978269E-3,0.000000000E0,-4.276056774E-3
2.801935251E0,-6.719517522E-3,3.665191587E-3,-4.276056774E-3
2.804003943E0,-8.552113548E-3,1.832595794E-3,-4.276056774E-3
2.806076751E0,-7.330383174E-3,4.886921961E-3,-1.221730490E-3
2.808040097E0,-6.108652335E-3,6.108652335E-3,-2.443460980E-3
2.810038059E0,-7.941247895E-3,6.108652335E-3,-2.443460980E-3
2.812106828E0,-7.941247895E-3,6.719517522E-3,-1.832595794E-3
2.814141059E0,-8.552113548E-3,5.497787148E-3,0.000000000E0
2.816257328E0,-6.108652335E-3,5.497787148E-3,-3.665191587E-3
2.818243366E0,-9.162978269E-3,5.497787148E-3,-6.108652451E-4
2.820311828E0,-7.330383174E-3,4.276056774E-3,-6.108652451E-4
2.822346289E0,-5.497787148E-3,3.665191587E-3,-1.221730490E-3
2.824415251E0,-4.276056774E-3,1.221730490E-3,6.108652451E-4
2.826449366E0,-8.552113548E-3,6.108652451E-4,1.221730490E-3
2.828473866E0,-5.497787148E-3,-6.108652451E-4,-6.108652451E-4
2.830691136E0,-4.276056774E-3,-1.221730490E-3,1.832595794E-3
2.832527943E0,-5.497787148E-3,-2.443460980E-3,1.221730490E-3
2.834525943E0,-4.276056774E-3,-2.443460980E-3,-1.832595794E-3
2.836641482E0,-5.497787148E-3,-6.108652335E-3,1.832595794E-3
2.838628943E0,-5.497787148E-3,-5.497787148E-3,1.832595794E-3
2.840696597E0,-5.497787148E-3,-7.941247895E-3,1.221730490E-3
2.842731136E0,-4.886921961E-3,-7.330383174E-3,3.054326167E-3
2.844799520E0,-4.886921961E-3,-7.330383174E-3,3.054326167E-3
2.846872135E0,-4.276056774E-3,-6.108652335E-3,1.221730490E-3
2.848836674E0,-4.276056774E-3,-6.719517522E-3,3.665191587E-3
2.850835443E0,-5.497787148E-3,-7.330383174E-3,4.886921961E-3
2.852905251E0,-5.497787148E-3,-6.719517522E-3,4.276056774E-3
2.854939866E0,-6.108652335E-3,-6.108652335E-3,3.665191587E-3
2.857060443E0,-2.443460980E-3,-1.588249579E-2,6.719517522E-3
2.859043635E0,-3.054326167E-3,-1.404990070E-2,8.552113548E-3
2.861112135E0,-6.108652451E-4,-1.343903504E-2,6.108652335E-3
2.863146905E0,0.000000000E0,-1.221730467E-2,6.719517522E-3
2.865215943E0,1.221730490E-3,-1.466076635E-2,4.276056774E-3
2.867250482E0,-2.443460980E-3,-1.282817032E-2,7.330383174E-3
2.869274482E0,-6.108652451E-4,-1.160643995E-2,7.330383174E-3
2.871274251E0,-1.221730490E-3,-1.282817032E-2,6.108652335E-3
2.873342674E0,1.221730490E-3,-7.941247895E-3,8.552113548E-3
2.875377789E0,4.276056774E-3,-1.099557430E-2,4.886921961E-3
2.877488520E0,-1.221730490E-3,-9.162978269E-3,6.108652335E-3
2.879480251E0,6.108652451E-4,-9.162978269E-3,8.552113548E-3
2.881549674E0,1.832595794E-3,-8.552113548E-3,7.941247895E-3
2.883583405E0,1.832595794E-3,-6.108652335E-3,7.330383174E-3
2.885652174E0,1.221730490E-3,-7.330383174E-3,9.773843922E-3
2.887725212E0,2.443460980E-3,-7.330383174E-3,7.941247895E-3
2.889689635E0,3.665191587E-3,-7.941247895E-3,6.719517522E-3
2.891688520E0,3.054326167E-3,-6.719517522E-3,7.941247895E-3
2.893757328E0,4.886921961E-3,-4.886921961E-3,4.276056774E-3
2.895791174E0,3.054326167E-3,-6.108652335E-3,7.330383174E-3
2.897903020E0,6.108652451E-4,-6.719517522E-3,9.773843922E-3
2.899895212E0,5.497787148E-3,-6.108652335E-3,4.276056774E-3
2.901964212E0,3.665191587E-3,-8.552113548E-3,6.108652335E-3
2.903998135E0,3.054326167E-3,-7.941247895E-3,7.941247895E-3
2.906067289E0,4.886921961E-3,-7.941247895E-3,6.108652335E-3
2.908101866E0,5.497787148E-3,-6.108652335E-3,6.719517522E-3
2.910128020E0,5.497787148E-3,-6.108652335E-3,5.497787148E-3
2.912127404E0,4.276056774E-3,-7.941247895E-3,6.108652335E-3
2.914135020E0,3.665191587E-3,-8.552113548E-3,6.719517522E-3
2.916134520E0,7.330383174E-3,-6.719517522E-3,6.108652335E-3
2.918245904E0,6.108652335E-3,-7.941247895E-3,6.719517522E-3
2.920237674E0,6.719517522E-3,-3.665191587E-3,7.330383174E-3
2.922306866E0,6.719517522E-3,-4.276056774E-3,9.162978269E-3
2.924340981E0,8.552113548E-3,-3.054326167E-3,6.108652335E-3
2.926409597E0,7.330383174E-3,-1.221730490E-3,7.330383174E-3
2.928482520E0,9.162978269E-3,-2.443460980E-3,6.719517522E-3
2.930445712E0,8.552113548E-3,6.108652451E-4,5.497787148E-3
2.932445404E0,1.038470957E-2,1.832595794E-3,7.330383174E-3
2.934514751E0,8.552113548E-3,0.000000000E0,6.719517522E-3
2.936548020E0,7.941247895E-3,3.665191587E-3,7.941247895E-3
2.938659866E0,9.162978269E-3,6.108652335E-3,8.552113548E-3
2.940651212E0,8.552113548E-3,6.719517522E-3,7.941247895E-3
2.942719674E0,1.160643995E-2,9.162978269E-3,4.886921961E-3
2.944753712E0,9.773843922E-3,7.941247895E-3,9.162978269E-3
2.946821904E0,1.160643995E-2,9.773843922E-3,7.941247895E-3
2.948855597E0,1.099557430E-2,1.160643995E-2,7.941247895E-3
2.950879058E0,1.160643995E-2,1.221730467E-2,9.162978269E-3
2.952878750E0,1.404990070E-2,1.466076635E-2,9.162978269E-3
2.954947020E0,1.160643995E-2,1.404990070E-2,9.773843922E-3
2.956980981E0,1.343903504E-2,1.466076635E-2,6.108652335E-3
2.959096943E0,1.343903504E-2,1.404990070E-2,5.497787148E-3
2.961083558E0,1.527163107E-2,1.404990070E-2,6.108652335E-3
2.963151904E0,1.221730467E-2,1.343903504E-2,7.330383174E-3
2.965185366E0,1.343903504E-2,1.160643995E-2,7.330383174E-3
2.967254212E0,1.343903504E-2,1.221730467E-2,7.330383174E-3
2.969326404E0,1.282817032E-2,1.221730467E-2,4.886921961E-3
2.971288404E0,1.038470957E-2,1.160643995E-2,7.330383174E-3
2.973287173E0,1.282817032E-2,1.221730467E-2,6.719517522E-3
2.975356020E0,1.160643995E-2,1.160643995E-2,6.108652335E-3
2.977390673E0,1.038470957E-2,1.160643995E-2,6.719517522E-3
2.979506904E0,1.404990070E-2,1.282817032E-2,4.276056774E-3
2.981493520E0,1.282817032E-2,1.038470957E-2,5.497787148E-3
2.983562981E0,1.282817032E-2,1.038470957E-2,5.497787148E-3
2.985597673E0,1.343903504E-2,9.162978269E-3,3.665191587E-3
2.987666135E0,1.404990070E-2,9.162978269E-3,3.665191587E-3
2.989700173E0,1.404990070E-2,1.038470957E-2,4.886921961E-3
2.991723481E0,1.160643995E-2,8.552113548E-3,5.497787148E-3
2.993723366E0,1.221730467E-2,9.773843922E-3,3.665191587E-3
2.995791673E0,1.282817032E-2,1.160643995E-2,2.443460980E-3
2.997826096E0,1.282817032E-2,7.330383174E-3,4.276056774E-3
2.999942443E0,1.160643995E-2,9.773843922E-3,3.665191587E-3
3.001929327E0,1.404990070E-2,9.162978269E-3,1.221730490E-3
3.003998520E0,1.221730467E-2,9.162978269E-3,4.886921961E-3
3.006033212E0,1.343903504E-2,7.941247895E-3,3.054326167E-3
3.008102250E0,1.221730467E-2,9.162978269E-3,3.665191587E-3
3.010175558E0,1.221730467E-2,9.773843922E-3,4.276056774E-3
3.012139904E0,1.404990070E-2,1.038470957E-2,6.108652451E-4
3.014139135E0,1.343903504E-2,1.160643995E-2,1.221730490E-3
3.016208596E0,1.466076635E-2,8.552113548E-3,2.443460980E-3
3.018242981E0,1.588249579E-2,9.162978269E-3,1.832595794E-3
3.020359443E0,1.282817032E-2,9.162978269E-3,3.054326167E-3
3.022347250E0,1.221730467E-2,9.162978269E-3,4.886921961E-3
3.024415558E0,1.343903504E-2,7.941247895E-3,3.665191587E-3
3.026450173E0,1.466076635E-2,6.719517522E-3,3.665191587E-3
3.028519750E0,1.282817032E-2,4.886921961E-3,7.330383174E-3
3.030554481E0,1.282817032E-2,5.497787148E-3,4.886921961E-3
3.032578904E0,1.404990070E-2,3.054326167E-3,1.832595794E-3
3.034578212E0,1.343903504E-2,2.443460980E-3,3.665191587E-3
3.036647173E0,1.160643995E-2,4.886921961E-3,6.719517522E-3
3.038680827E0,1.160643995E-2,3.665191587E-3,3.054326167E-3
3.040797519E0,1.404990070E-2,3.665191587E-3,3.665191587E-3
3.042783519E0,1.282817032E-2,3.054326167E-3,4.276056774E-3
3.044852442E0,1.099557430E-2,6.108652451E-4,4.276056774E-3
3.046886635E0,1.343903504E-2,1.221730490E-3,2.443460980E-3
3.048955865E0,1.221730467E-2,-6.108652451E-4,5.497787148E-3
3.051029058E0,9.773843922E-3,0.000000000E0,4.276056774E-3
3.052992865E0,1.160643995E-2,-1.221730490E-3,6.719517522E-3
3.054992558E0,1.160643995E-2,0.000000000E0,6.719517522E-3
3.057061596E0,1.221730467E-2,-6.108652451E-4,6.108652335E-3
3.059095712E0,1.038470957E-2,0.000000000E0,8.552113548E-3
3.061212481E0,1.282817032E-2,-1.221730490E-3,7.330383174E-3
3.063199096E0,1.221730467E-2,-1.832595794E-3,9.162978269E-3
3.065268635E0,1.160643995E-2,-3.054326167E-3,1.099557430E-2
3.067303712E0,1.343903504E-2,-6.108652451E-4,5.497787148E-3
3.069372442E0,1.160643995E-2,-3.054326167E-3,1.038470957E-2
3.071407558E0,1.404990070E-2,-2.443460980E-3,8.552113548E-3
3.073431519E0,1.282817032E-2,-3.054326167E-3,6.108652335E-3
3.075646904E0,1.221730467E-2,-5.497787148E-3,8.552113548E-3
3.077483365E0,1.221730467E-2,-4.886921961E-3,7.941247895E-3
3.079483173E0,1.221730467E-2,-4.886921961E-3,7.330383174E-3
3.081599788E0,1.099557430E-2,-6.108652335E-3,1.038470957E-2
3.083586250E0,1.099557430E-2,-6.719517522E-3,1.099557430E-2
3.085655327E0,1.221730467E-2,-6.719517522E-3,9.162978269E-3
3.087689827E0,1.160643995E-2,-5.497787148E-3,7.330383174E-3
3.089758596E0,1.038470957E-2,-9.162978269E-3,9.162978269E-3
3.091832135E0,1.099557430E-2,-9.773843922E-3,7.941247895E-3
3.093798327E0,9.162978269E-3,-1.038470957E-2,9.773843922E-3
3.095797481E0,9.162978269E-3,-8.552113548E-3,8.552113548E-3
3.097867250E0,9.162978269E-3,-9.162978269E-3,6.719517522E-3
3.099902211E0,9.773843922E-3,-9.162978269E-3,6.108652335E-3
3.102020058E0,9.162978269E-3,-1.038470957E-2,9.162978269E-3
3.104007942E0,8.552113548E-3,-9.773843922E-3,4.276056774E-3
3.106077788E0,9.773843922E-3,-1.038470957E-2,5.497787148E-3
3.108127596E0,7.330383174E-3,-1.038470957E-2,7.941247895E-3
3.110182365E0,6.719517522E-3,-9.773843922E-3,3.665191587E-3
3.112218019E0,7.330383174E-3,-9.773843922E-3,6.108652335E-3
3.114242481E0,3.054326167E-3,-1.160643995E-2,7.330383174E-3
3.116242788E0,3.665191587E-3,-1.221730467E-2,3.665191587E-3
3.118312211E0,3.665191587E-3,-1.038470957E-2,2.443460980E-3
3.120348134E0,3.665191587E-3,-1.099557430E-2,6.108652335E-3
3.122465519E0,3.665191587E-3,-1.038470957E-2,3.054326167E-3
3.124452827E0,4.276056774E-3,-1.160643995E-2,4.886921961E-3
3.126522211E0,3.665191587E-3,-1.038470957E-2,2.443460980E-3
3.128557788E0,6.719517522E-3,-1.221730467E-2,6.108652451E-4
3.130627634E0,3.665191587E-3,-1.282817032E-2,3.054326167E-3
3.132701750E0,4.886921961E-3,-1.099557430E-2,3.054326167E-3
3.134665096E0,3.665191587E-3,-1.221730467E-2,4.886921961E-3
3.136665057E0,4.276056774E-3,-1.038470957E-2,3.665191587E-3
3.138734634E0,3.054326167E-3,-9.162978269E-3,1.832595794E-3
3.140769596E0,3.665191587E-3,-9.773843922E-3,3.054326167E-3
3.142886942E0,6.108652335E-3,-9.773843922E-3,2.443460980E-3
3.144873942E0,4.276056774E-3,-1.038470957E-2,2.443460980E-3
3.146943904E0,7.941247895E-3,-6.108652335E-3,1.221730490E-3
3.148978519E0,5.497787148E-3,-7.330383174E-3,7.330383174E-3
3.151047788E0,6.719517522E-3,-3.054326167E-3,0.000000000E0
3.153082711E0,4.886921961E-3,-6.719517522E-3,3.665191587E-3
3.155106711E0,4.886921961E-3,-4.886921961E-3,4.886921961E-3
3.157108019E0,8.552113548E-3,-3.054326167E-3,3.665191587E-3
3.159177134E0,4.886921961E-3,-3.054326167E-3,3.054326167E-3
3.161212980E0,7.330383174E-3,-3.054326167E-3,6.108652335E-3
3.163330519E0,4.276056774E-3,-3.665191587E-3,2.443460980E-3
3.165319173E0,5.497787148E-3,-3.054326167E-3,4.886921961E-3
3.167388557E0,3.665191587E-3,-2.443460980E-3,3.665191587E-3
3.169424096E0,4.886921961E-3,-1.221730490E-3,4.276056774E-3
3.171494403E0,2.443460980E-3,-4.276056774E-3,6.719517522E-3
3.173567865E0,6.108652335E-3,-3.054326167E-3,3.665191587E-3
3.175534365E0,6.108652335E-3,-1.832595794E-3,1.832595794E-3
3.177534865E0,2.443460980E-3,-2.443460980E-3,4.886921961E-3
3.179604980E0,3.054326167E-3,-3.665191587E-3,2.443460980E-3
3.181640365E0,2.443460980E-3,-1.221730490E-3,1.832595794E-3
3.183758134E0,3.665191587E-3,-3.054326167E-3,3.665191587E-3
3.185746442E0,-6.108652451E-4,-3.665191587E-3,6.108652335E-3
3.187815980E0,3.054326167E-3,-1.832595794E-3,1.832595794E-3
3.189851442E0,6.108652451E-4,-5.497787148E-3,4.276056774E-3
3.191921019E0,-1.832595794E-3,-2.443460980E-3,3.665191587E-3
3.193957826E0,-1.221730490E-3,-2.443460980E-3,2.443460980E-3
3.195982365E0,-6.108652451E-4,-4.276056774E-3,1.221730490E-3
3.197983365E0,-3.665191587E-3,-7.330383174E-3,5.497787148E-3
3.200055134E0,-1.832595794E-3,-5.497787148E-3,-1.832595794E-3
3.202089865E0,-3.054326167E-3,-6.108652335E-3,1.221730490E-3
3.204207326E0,-3.665191587E-3,-6.108652335E-3,1.832595794E-3
3.206194634E0,-4.886921961E-3,-6.108652335E-3,0.000000000E0
3.208264596E0,-4.886921961E-3,-6.108652335E-3,1.832595794E-3
3.210300903E0,-3.665191587E-3,-5.497787148E-3,4.276056774E-3
3.212370711E0,-6.719517522E-3,-6.108652335E-3,1.832595794E-3
3.214444019E0,-4.886921961E-3,-5.497787148E-3,2.443460980E-3
3.216408519E0,-7.941247895E-3,-4.276056774E-3,4.276056774E-3
3.218409134E0,-6.719517522E-3,-3.665191587E-3,2.443460980E-3
3.220478557E0,-6.719517522E-3,-3.054326167E-3,4.276056774E-3
3.222513634E0,-7.330383174E-3,-3.054326167E-3,3.054326167E-3
3.224631519E0,-7.330383174E-3,-2.443460980E-3,2.443460980E-3
3.226618865E0,-7.941247895E-3,-2.443460980E-3,2.443460980E-3
3.228688326E0,-7.330383174E-3,-3.665191587E-3,4.276056774E-3
3.230723903E0,-7.941247895E-3,-2.443460980E-3,2.443460980E-3
3.232793557E0,-6.719517522E-3,-1.832595794E-3,1.221730490E-3
3.234828326E0,-6.108652335E-3,-2.443460980E-3,6.108652335E-3
3.236853480E0,-6.108652335E-3,-1.832595794E-3,5.497787148E-3
3.238853711E0,-7.330383174E-3,-3.054326167E-3,4.276056774E-3
3.240922403E0,-7.941247895E-3,-3.665191587E-3,3.054326167E-3
3.242957442E0,-6.719517522E-3,-3.665191587E-3,4.886921961E-3
3.245074365E0,-4.886921961E-3,-3.665191587E-3,3.665191587E-3
3.247062365E0,-4.886921961E-3,-3.054326167E-3,5.497787148E-3
3.249131788E0,-2.443460980E-3,-4.276056774E-3,1.832595794E-3
3.251166942E0,-6.719517522E-3,-3.665191587E-3,3.665191587E-3
3.253236134E0,-1.832595794E-3,-2.443460980E-3,1.832595794E-3
3.255309134E0,-3.054326167E-3,-4.276056774E-3,2.443460980E-3
3.257273365E0,-2.443460980E-3,-3.665191587E-3,2.443460980E-3
3.259273057E0,-3.665191587E-3,-3.054326167E-3,4.276056774E-3
3.261342557E0,-1.221730490E-3,-3.054326167E-3,3.665191587E-3
3.263376788E0,-1.832595794E-3,-2.443460980E-3,1.832595794E-3
3.265494903E0,-1.832595794E-3,-3.054326167E-3,6.719517522E-3
3.267481557E0,-6.108652451E-4,-3.665191587E-3,1.221730490E-3
3.269550942E0,6.108652451E-4,-3.665191587E-3,3.054326167E-3
3.271587018E0,-1.221730490E-3,-3.665191587E-3,4.276056774E-3
3.273655788E0,0.000000000E0,0.000000000E0,1.832595794E-3
3.275690749E0,-1.221730490E-3,-4.886921961E-3,4.276056774E-3
3.277715134E0,-2.443460980E-3,-3.665191587E-3,5.497787148E-3
3.279714903E0,-3.054326167E-3,-1.221730490E-3,3.665191587E-3
3.281784172E0,-6.719517522E-3,-3.665191587E-3,3.054326167E-3
3.283818672E0,-6.719517522E-3,-2.443460980E-3,6.719517522E-3
3.285936442E0,-8.552113548E-3,-1.832595794E-3,5.497787148E-3
3.287924172E0,-8.552113548E-3,-2.443460980E-3,6.108652335E-3
3.289993942E0,-9.773843922E-3,-1.832595794E-3,5.497787148E-3
3.292029941E0,-1.099557430E-2,-1.221730490E-3,4.276056774E-3
3.294099480E0,-9.773843922E-3,-4.886921961E-3,6.108652335E-3
3.296172903E0,-1.099557430E-2,-3.054326167E-3,7.330383174E-3
3.298136903E0,-1.221730467E-2,-5.497787148E-3,3.054326167E-3
3.300135749E0,-1.343903504E-2,-8.552113548E-3,3.665191587E-3
3.302205095E0,-1.282817032E-2,-8.552113548E-3,4.276056774E-3
3.304240365E0,-1.404990070E-2,-1.099557430E-2,3.665191587E-3
3.306358365E0,-1.160643995E-2,-1.160643995E-2,1.832595794E-3
3.308344903E0,-1.527163107E-2,-1.404990070E-2,3.665191587E-3
3.310414095E0,-1.404990070E-2,-1.710422710E-2,1.221730490E-3
3.312448441E0,-1.404990070E-2,-1.893682219E-2,4.886921961E-3
3.314518441E0,-1.343903504E-2,-2.076941915E-2,6.108652335E-3
3.316553441E0,-1.221730467E-2,-1.893682219E-2,1.832595794E-3
3.318579826E0,-1.404990070E-2,-2.321287990E-2,6.108652451E-4
3.320794864E0,-1.038470957E-2,-2.199114859E-2,6.108652451E-4
3.322631941E0,-1.221730467E-2,-2.199114859E-2,1.832595794E-3
3.324631595E0,-1.038470957E-2,-2.138028294E-2,2.443460980E-3
3.326747518E0,-9.773843922E-3,-2.076941915E-2,3.054326167E-3
3.328734980E0,-1.038470957E-2,-1.893682219E-2,1.832595794E-3
3.330803287E0,-9.773843922E-3,-1.893682219E-2,3.054326167E-3
3.332837711E0,-9.162978269E-3,-1.771509275E-2,1.832595794E-3
3.334906941E0,-7.330383174E-3,-1.954768784E-2,6.108652451E-4
3.336980364E0,-5.497787148E-3,-1.893682219E-2,4.276056774E-3
3.338946787E0,-7.941247895E-3,-1.710422710E-2,2.443460980E-3
3.340945826E0,-3.054326167E-3,-1.588249579E-2,0.000000000E0
3.343015403E0,-3.054326167E-3,-1.527163107E-2,3.054326167E-3
3.345050480E0,-6.108652335E-3,-1.221730467E-2,3.054326167E-3
3.347168172E0,-5.497787148E-3,-1.160643995E-2,1.832595794E-3
3.349155941E0,-3.665191587E-3,-1.221730467E-2,1.832595794E-3
3.351225557E0,-4.276056774E-3,-1.221730467E-2,4.886921961E-3
3.353261595E0,-5.497787148E-3,-1.099557430E-2,1.221730490E-3
3.355331864E0,-3.054326167E-3,-1.038470957E-2,3.054326167E-3
3.357365749E0,-3.054326167E-3,-9.162978269E-3,6.108652335E-3
3.359389864E0,-3.054326167E-3,-1.038470957E-2,6.719517522E-3
3.361389326E0,-4.276056774E-3,-9.773843922E-3,3.054326167E-3
3.363459749E0,-3.054326167E-3,-1.160643995E-2,5.497787148E-3
3.365494941E0,-1.221730490E-3,-1.282817032E-2,3.054326167E-3
3.367612095E0,-1.221730490E-3,-1.282817032E-2,2.443460980E-3
3.369599826E0,2.443460980E-3,-1.282817032E-2,3.054326167E-3
3.371670595E0,0.000000000E0,-1.404990070E-2,1.221730490E-3
3.373705172E0,6.108652451E-4,-1.343903504E-2,1.832595794E-3
3.375775249E0,2.443460980E-3,-1.588249579E-2,6.108652335E-3
3.377849595E0,1.832595794E-3,-1.710422710E-2,1.221730490E-3
3.379813980E0,0.000000000E0,-1.771509275E-2,1.221730490E-3
3.381814364E0,3.665191587E-3,-1.832595654E-2,3.054326167E-3
3.383884172E0,1.832595794E-3,-2.076941915E-2,3.054326167E-3
3.385919403E0,4.276056774E-3,-2.076941915E-2,-1.221730490E-3
3.388037057E0,1.832595794E-3,-2.015855350E-2,4.886921961E-3
3.390023903E0,3.665191587E-3,-1.954768784E-2,2.443460980E-3
3.392094095E0,4.276056774E-3,-2.138028294E-2,0.000000000E0
3.394128749E0,3.665191587E-3,-2.138028294E-2,3.665191587E-3
3.396198095E0,4.276056774E-3,-2.138028294E-2,2.443460980E-3
3.398232633E0,4.886921961E-3,-2.138028294E-2,0.000000000E0
3.400256864E0,6.108652335E-3,-1.954768784E-2,4.886921961E-3
3.402257595E0,6.108652335E-3,-2.076941915E-2,2.443460980E-3
3.404326480E0,9.162978269E-3,-1.893682219E-2,3.665191587E-3
3.406361287E0,6.108652335E-3,-1.832595654E-2,4.276056774E-3
3.408479326E0,9.162978269E-3,-1.832595654E-2,3.054326167E-3
3.410466441E0,8.552113548E-3,-1.710422710E-2,1.832595794E-3
3.412537326E0,7.330383174E-3,-1.832595654E-2,3.665191587E-3
3.414572441E0,6.108652335E-3,-1.649336144E-2,4.886921961E-3
3.416642172E0,7.941247895E-3,-1.649336144E-2,0.000000000E0
3.418716172E0,7.941247895E-3,-1.404990070E-2,1.832595794E-3
3.420680287E0,9.162978269E-3,-1.588249579E-2,3.054326167E-3
3.422680595E0,8.552113548E-3,-1.343903504E-2,4.276056774E-3
3.424749056E0,8.552113548E-3,-1.527163107E-2,3.665191587E-3
3.426783595E0,9.162978269E-3,-1.221730467E-2,6.108652451E-4
3.428901249E0,6.719517522E-3,-1.282817032E-2,5.497787148E-3
3.430888633E0,7.330383174E-3,-1.343903504E-2,4.886921961E-3
3.432957633E0,9.162978269E-3,-1.160643995E-2,1.221730490E-3
3.434993210E0,1.038470957E-2,-1.343903504E-2,5.497787148E-3
3.437062787E0,7.941247895E-3,-1.160643995E-2,3.054326167E-3
3.439098095E0,9.162978269E-3,-1.343903504E-2,1.221730490E-3
3.441123518E0,7.941247895E-3,-1.527163107E-2,4.276056774E-3
3.443123595E0,1.160643995E-2,-1.282817032E-2,1.832595794E-3
3.445193595E0,8.552113548E-3,-1.466076635E-2,3.665191587E-3
3.447228326E0,9.162978269E-3,-1.466076635E-2,6.719517522E-3
3.449344941E0,8.552113548E-3,-1.404990070E-2,3.665191587E-3
3.451332056E0,1.038470957E-2,-1.588249579E-2,1.221730490E-3
3.453401595E0,1.099557430E-2,-1.404990070E-2,5.497787148E-3
3.455436364E0,1.038470957E-2,-1.527163107E-2,1.221730490E-3
3.457506172E0,1.038470957E-2,-1.588249579E-2,1.221730490E-3
3.459578787E0,1.099557430E-2,-1.343903504E-2,1.221730490E-3
3.461542941E0,1.282817032E-2,-1.527163107E-2,1.832595794E-3
3.463543095E0,9.773843922E-3,-1.404990070E-2,4.276056774E-3
3.465612018E0,1.160643995E-2,-1.588249579E-2,6.719517522E-3
3.467647595E0,1.221730467E-2,-1.343903504E-2,2.443460980E-3
3.469764518E0,1.160643995E-2,-1.466076635E-2,4.276056774E-3
3.471751248E0,1.099557430E-2,-1.466076635E-2,2.443460980E-3
3.473821595E0,1.160643995E-2,-1.282817032E-2,3.054326167E-3
3.475856787E0,1.466076635E-2,-1.221730467E-2,2.443460980E-3
3.477925941E0,1.221730467E-2,-1.343903504E-2,4.276056774E-3
3.479960441E0,1.404990070E-2,-1.404990070E-2,3.665191587E-3
3.481984748E0,1.404990070E-2,-1.099557430E-2,5.497787148E-3
3.483984441E0,1.404990070E-2,-1.221730467E-2,4.886921961E-3
3.486054633E0,1.588249579E-2,-9.773843922E-3,4.276056774E-3
3.488090287E0,1.527163107E-2,-7.941247895E-3,7.330383174E-3
3.490207402E0,1.588249579E-2,-7.941247895E-3,7.941247895E-3
3.492195095E0,1.710422710E-2,-1.038470957E-2,6.108652335E-3
3.494264787E0,1.893682219E-2,-9.773843922E-3,7.941247895E-3
3.496299441E0,1.710422710E-2,-9.162978269E-3,3.665191587E-3
3.498369710E0,1.649336144E-2,-9.773843922E-3,7.330383174E-3
3.500444441E0,1.771509275E-2,-9.773843922E-3,4.276056774E-3
3.502408248E0,1.771509275E-2,-1.099557430E-2,4.886921961E-3
3.504408825E0,1.893682219E-2,-1.099557430E-2,6.719517522E-3
3.506478133E0,2.015855350E-2,-1.221730467E-2,4.276056774E-3
3.508513479E0,1.588249579E-2,-1.282817032E-2,6.108652335E-3
3.510631325E0,1.771509275E-2,-1.466076635E-2,4.276056774E-3
3.512619210E0,1.710422710E-2,-1.527163107E-2,1.832595794E-3
3.514688710E0,1.466076635E-2,-1.466076635E-2,4.276056774E-3
3.516739133E0,1.527163107E-2,-1.404990070E-2,3.665191587E-3
3.518794902E0,1.649336144E-2,-1.649336144E-2,3.054326167E-3
3.520830633E0,1.404990070E-2,-1.771509275E-2,4.276056774E-3
3.522855441E0,1.710422710E-2,-1.832595654E-2,1.832595794E-3
3.524855364E0,1.343903504E-2,-1.771509275E-2,5.497787148E-3
3.526925402E0,1.343903504E-2,-1.771509275E-2,3.054326167E-3
3.528960402E0,1.038470957E-2,-1.893682219E-2,3.665191587E-3
3.531077787E0,1.221730467E-2,-1.832595654E-2,6.108652451E-4
3.533065671E0,1.038470957E-2,-2.015855350E-2,1.832595794E-3
3.535135325E0,1.038470957E-2,-1.893682219E-2,2.443460980E-3
3.537170864E0,9.773843922E-3,-1.832595654E-2,1.832595794E-3
3.539240710E0,1.099557430E-2,-1.710422710E-2,6.108652451E-4
3.541315248E0,1.099557430E-2,-1.771509275E-2,6.108652451E-4
3.543279902E0,9.162978269E-3,-1.527163107E-2,1.221730490E-3
3.545281594E0,9.162978269E-3,-1.893682219E-2,0.000000000E0
3.547350825E0,7.941247895E-3,-1.466076635E-2,-1.221730490E-3
3.549386441E0,9.773843922E-3,-1.588249579E-2,-2.443460980E-3
3.551503364E0,9.162978269E-3,-1.527163107E-2,1.832595794E-3
3.553491556E0,6.719517522E-3,-1.832595654E-2,1.221730490E-3
3.555561171E0,5.497787148E-3,-1.588249579E-2,0.000000000E0
3.557596171E0,4.276056774E-3,-1.527163107E-2,3.054326167E-3
3.559666287E0,7.330383174E-3,-1.771509275E-2,1.221730490E-3
3.561702325E0,7.330383174E-3,-1.649336144E-2,2.443460980E-3
3.563727940E0,6.719517522E-3,-1.649336144E-2,6.108652451E-4
3.565944094E0,5.497787148E-3,-1.710422710E-2,1.221730490E-3
3.567781248E0,6.108652335E-3,-1.649336144E-2,4.276056774E-3
3.569781556E0,4.276056774E-3,-1.771509275E-2,3.054326167E-3
3.571898094E0,4.886921961E-3,-1.588249579E-2,1.832595794E-3
3.573887017E0,5.497787148E-3,-1.771509275E-2,3.665191587E-3
3.575956440E0,6.108652335E-3,-1.832595654E-2,3.054326167E-3
3.577992633E0,4.276056774E-3,-1.588249579E-2,3.054326167E-3
3.580061979E0,4.276056774E-3,-1.649336144E-2,3.665191587E-3
3.582134787E0,4.886921961E-3,-1.832595654E-2,4.886921961E-3
3.584100210E0,6.108652335E-3,-1.649336144E-2,2.443460980E-3
3.586099979E0,6.719517522E-3,-1.649336144E-2,4.276056774E-3
3.588169633E0,6.719517522E-3,-1.832595654E-2,1.221730490E-3
3.590204248E0,6.719517522E-3,-1.649336144E-2,2.443460980E-3
3.592321440E0,6.719517522E-3,-1.710422710E-2,3.054326167E-3
3.594308325E0,6.719517522E-3,-1.771509275E-2,4.276056774E-3
3.596377594E0,4.886921961E-3,-1.710422710E-2,5.497787148E-3
3.598412979E0,4.886921961E-3,-1.710422710E-2,5.497787148E-3
3.600481902E0,4.276056774E-3,-1.588249579E-2,5.497787148E-3
3.602516517E0,4.886921961E-3,-1.771509275E-2,3.054326167E-3
3.604540979E0,3.054326167E-3,-1.527163107E-2,7.941247895E-3
3.606540710E0,4.886921961E-3,-1.649336144E-2,5.497787148E-3
3.608610633E0,4.276056774E-3,-1.588249579E-2,4.886921961E-3
3.610645056E0,4.276056774E-3,-1.404990070E-2,7.330383174E-3
3.612763056E0,4.886921961E-3,-1.588249579E-2,6.108652335E-3
3.614749556E0,3.054326167E-3,-1.404990070E-2,4.276056774E-3
3.616819286E0,1.832595794E-3,-1.832595654E-2,9.162978269E-3
3.618855017E0,3.054326167E-3,-1.588249579E-2,4.276056774E-3
3.620924556E0,2.443460980E-3,-1.588249579E-2,3.665191587E-3
3.622998594E0,1.832595794E-3,-1.710422710E-2,6.719517522E-3
3.624961594E0,-6.108652451E-4,-1.710422710E-2,6.108652335E-3
3.626961748E0,-1.221730490E-3,-1.893682219E-2,7.330383174E-3
3.629031748E0,-6.108652451E-4,-1.649336144E-2,5.497787148E-3
3.631066825E0,0.000000000E0,-1.954768784E-2,4.886921961E-3
3.633185017E0,-6.108652451E-4,-1.893682219E-2,7.941247895E-3
3.635172517E0,-1.221730490E-3,-1.893682219E-2,6.108652335E-3
3.637242709E0,6.108652451E-4,-1.649336144E-2,6.108652451E-4
3.639278094E0,-2.443460980E-3,-2.015855350E-2,3.665191587E-3
3.641347479E0,-1.832595794E-3,-2.076941915E-2,5.497787148E-3
3.643382556E0,-3.054326167E-3,-2.199114859E-2,4.276056774E-3
3.645407325E0,-3.054326167E-3,-1.893682219E-2,3.665191587E-3
3.647407517E0,-2.443460980E-3,-1.954768784E-2,4.276056774E-3
3.649478094E0,-2.443460980E-3,-2.199114859E-2,5.497787148E-3
3.651513479E0,-3.665191587E-3,-2.076941915E-2,2.443460980E-3
3.653631825E0,-2.443460980E-3,-2.015855350E-2,6.108652335E-3
3.655618748E0,-1.832595794E-3,-2.015855350E-2,4.276056774E-3
3.657688325E0,-3.665191587E-3,-2.138028294E-2,3.665191587E-3
3.659723748E0,-4.276056774E-3,-1.954768784E-2,6.108652335E-3
3.661793209E0,-2.443460980E-3,-2.138028294E-2,5.497787148E-3
3.663867017E0,-3.665191587E-3,-1.893682219E-2,7.330383174E-3
3.665832017E0,-3.665191587E-3,-1.954768784E-2,5.497787148E-3
3.667830940E0,-1.832595794E-3,-1.771509275E-2,4.276056774E-3
3.669900440E0,-5.497787148E-3,-2.015855350E-2,2.443460980E-3
3.671935632E0,-2.443460980E-3,-1.893682219E-2,6.108652335E-3
3.674052902E0,-1.221730490E-3,-1.832595654E-2,4.886921961E-3
3.676040055E0,-4.276056774E-3,-1.771509275E-2,5.497787148E-3
3.678109709E0,-3.054326167E-3,-1.649336144E-2,4.276056774E-3
3.680144940E0,-3.665191587E-3,-1.771509275E-2,5.497787148E-3
3.682214402E0,-4.276056774E-3,-1.588249579E-2,7.330383174E-3
3.684249209E0,-3.054326167E-3,-1.588249579E-2,7.330383174E-3
3.686273825E0,-1.221730490E-3,-1.404990070E-2,6.108652335E-3
3.688274902E0,-6.108652451E-4,-1.466076635E-2,3.665191587E-3
3.690343709E0,-3.665191587E-3,-1.466076635E-2,6.108652335E-3
3.692378978E0,-4.276056774E-3,-1.527163107E-2,7.941247895E-3
3.694496632E0,-1.832595794E-3,-1.466076635E-2,5.497787148E-3
3.696484094E0,-2.443460980E-3,-1.466076635E-2,4.276056774E-3
3.698553863E0,-3.054326167E-3,-1.588249579E-2,7.330383174E-3
3.700588478E0,-3.054326167E-3,-1.527163107E-2,6.108652335E-3
3.702658632E0,-2.443460980E-3,-1.527163107E-2,7.330383174E-3
3.704732555E0,1.221730490E-3,-1.588249579E-2,7.941247895E-3
3.706697517E0,-1.221730490E-3,-1.588249579E-2,6.719517522E-3
3.708697094E0,-2.443460980E-3,-1.588249579E-2,6.719517522E-3
3.710766671E0,0.000000000E0,-1.649336144E-2,6.108652335E-3
3.712802094E0,-1.832595794E-3,-1.588249579E-2,6.108652335E-3
3.714919286E0,-6.108652451E-4,-1.466076635E-2,6.719517522E-3
3.716906786E0,6.108652451E-4,-1.404990070E-2,4.886921961E-3
3.718976978E0,-2.443460980E-3,-1.466076635E-2,6.719517522E-3
3.721011901E0,-1.221730490E-3,-1.466076635E-2,6.108652335E-3
3.723080863E0,-1.832595794E-3,-1.160643995E-2,8.552113548E-3
3.725116055E0,-1.221730490E-3,-1.343903504E-2,7.941247895E-3
3.727140209E0,-1.832595794E-3,-9.773843922E-3,6.719517522E-3
3.729140363E0,-2.443460980E-3,-1.038470957E-2,1.160643995E-2
3.731210363E0,-3.665191587E-3,-9.773843922E-3,6.719517522E-3
3.733245671E0,-1.221730490E-3,-9.162978269E-3,8.552113548E-3
3.735365171E0,-1.832595794E-3,-7.330383174E-3,7.941247895E-3
3.737351209E0,-1.832595794E-3,-7.941247895E-3,7.330383174E-3
3.739420940E0,-3.054326167E-3,-7.330383174E-3,7.941247895E-3
3.741456017E0,-3.665191587E-3,-6.719517522E-3,9.773843922E-3
3.743524786E0,-6.108652335E-3,-6.108652335E-3,9.162978269E-3
3.745597978E0,-6.719517522E-3,-5.497787148E-3,9.773843922E-3
3.747562555E0,-4.886921961E-3,-3.665191587E-3,6.108652335E-3
3.749562709E0,-7.941247895E-3,-3.665191587E-3,1.038470957E-2
3.751632324E0,-6.108652335E-3,-3.665191587E-3,8.552113548E-3
3.753667709E0,-7.330383174E-3,-2.443460980E-3,6.108652335E-3
3.755783401E0,-7.941247895E-3,0.000000000E0,6.719517522E-3
3.757770863E0,-7.941247895E-3,0.000000000E0,6.108652335E-3
3.759840132E0,-8.552113548E-3,-1.832595794E-3,7.330383174E-3
3.761874555E0,-6.719517522E-3,6.108652451E-4,7.330383174E-3
3.763943324E0,-9.162978269E-3,0.000000000E0,9.162978269E-3
3.765978594E0,-9.162978269E-3,1.832595794E-3,4.276056774E-3
3.768003670E0,-8.552113548E-3,3.665191587E-3,5.497787148E-3
3.770004363E0,-7.330383174E-3,5.497787148E-3,7.941247895E-3
3.772073747E0,-9.162978269E-3,6.108652335E-3,4.886921961E-3
3.774109363E0,-7.941247895E-3,6.719517522E-3,6.719517522E-3
3.776226093E0,-6.719517522E-3,8.552113548E-3,6.719517522E-3
3.778213901E0,-7.330383174E-3,9.773843922E-3,3.665191587E-3
3.780283747E0,-6.108652335E-3,7.330383174E-3,8.552113548E-3
3.782318940E0,-4.886921961E-3,1.038470957E-2,6.719517522E-3
3.784389440E0,-5.497787148E-3,6.719517522E-3,5.497787148E-3
3.786463478E0,-4.276056774E-3,1.038470957E-2,7.330383174E-3
3.788427170E0,-1.221730490E-3,8.552113548E-3,3.665191587E-3
3.790428017E0,-3.665191587E-3,7.941247895E-3,6.108652335E-3
3.792497632E0,-1.832595794E-3,7.330383174E-3,6.719517522E-3
3.794532824E0,-1.221730490E-3,6.719517522E-3,3.665191587E-3
3.796650863E0,-6.108652451E-4,4.276056774E-3,4.276056774E-3
3.798638516E0,0.000000000E0,3.665191587E-3,7.941247895E-3
3.800707363E0,0.000000000E0,1.832595794E-3,3.054326167E-3
3.802743401E0,3.054326167E-3,1.221730490E-3,8.552113548E-3
3.804812555E0,1.832595794E-3,0.000000000E0,7.941247895E-3
3.806848055E0,1.832595794E-3,6.108652451E-4,4.886921961E-3
3.808872709E0,3.054326167E-3,-6.108652451E-4,7.330383174E-3
3.811089093E0,3.054326167E-3,-2.443460980E-3,8.552113548E-3
3.812926901E0,1.832595794E-3,-4.886921961E-3,7.941247895E-3
3.814926747E0,2.443460980E-3,-5.497787148E-3,7.941247895E-3
3.817044478E0,2.443460980E-3,-7.330383174E-3,9.162978269E-3
3.819032324E0,1.221730490E-3,-7.330383174E-3,6.719517522E-3
3.821101401E0,1.832595794E-3,-9.162978269E-3,7.941247895E-3
3.823136978E0,1.221730490E-3,-9.773843922E-3,7.941247895E-3
3.825207439E0,1.221730490E-3,-9.773843922E-3,3.665191587E-3
3.827281055E0,1.221730490E-3,-9.773843922E-3,5.497787148E-3
3.829246939E0,-1.221730490E-3,-1.099557430E-2,7.330383174E-3
3.831246901E0,-6.108652451E-4,-1.099557430E-2,4.886921961E-3
3.833316324E0,-3.054326167E-3,-1.221730467E-2,7.941247895E-3
3.835351670E0,-3.665191587E-3,-1.221730467E-2,7.330383174E-3
3.837469209E0,-2.443460980E-3,-1.221730467E-2,6.719517522E-3
3.839456632E0,-3.054326167E-3,-1.527163107E-2,8.552113548E-3
3.841527055E0,-3.665191587E-3,-1.466076635E-2,7.941247895E-3
3.843562209E0,-4.886921961E-3,-1.710422710E-2,6.719517522E-3
3.845631747E0,-4.276056774E-3,-1.771509275E-2,5.497787148E-3
3.847667362E0,-2.443460980E-3,-1.832595654E-2,3.054326167E-3
3.849692439E0,-4.886921961E-3,-2.076941915E-2,4.886921961E-3
3.851693055E0,-4.276056774E-3,-2.199114859E-2,4.886921961E-3
3.853763132E0,-5.497787148E-3,-2.382374369E-2,2.443460980E-3
3.855798939E0,-5.497787148E-3,-2.687807009E-2,5.497787148E-3
3.857916747E0,-7.941247895E-3,-2.809980139E-2,6.108652335E-3
3.859905055E0,-7.941247895E-3,-2.809980139E-2,6.719517522E-3
3.861974709E0,-5.497787148E-3,-2.871066704E-2,6.108652335E-3
3.864009478E0,-6.719517522E-3,-2.932153270E-2,5.497787148E-3
3.866079478E0,-5.497787148E-3,-3.054326214E-2,7.330383174E-3
3.868152401E0,-4.886921961E-3,-2.993239649E-2,7.330383174E-3
3.870116516E0,-6.108652335E-3,-3.054326214E-2,7.330383174E-3
3.872116478E0,-5.497787148E-3,-2.748893574E-2,7.941247895E-3
3.874185670E0,-1.221730490E-3,-2.748893574E-2,9.162978269E-3
3.876220093E0,-6.108652335E-3,-2.687807009E-2,1.160643995E-2
3.878337516E0,-6.108652451E-4,-2.504547499E-2,7.941247895E-3
3.880324824E0,6.108652451E-4,-2.565634064E-2,8.552113548E-3
3.882394478E0,1.221730490E-3,-2.443460934E-2,8.552113548E-3
3.884429093E0,1.221730490E-3,-2.382374369E-2,7.330383174E-3
3.886497862E0,1.221730490E-3,-2.321287990E-2,9.773843922E-3
3.888532747E0,3.665191587E-3,-2.076941915E-2,6.108652335E-3
3.890557516E0,4.276056774E-3,-2.199114859E-2,6.719517522E-3
3.892557516E0,3.054326167E-3,-2.015855350E-2,6.719517522E-3
3.894626247E0,1.832595794E-3,-2.076941915E-2,7.941247895E-3
3.896660939E0,2.443460980E-3,-1.710422710E-2,7.941247895E-3
3.898777824E0,4.276056774E-3,-1.893682219E-2,6.719517522E-3
3.900765285E0,3.665191587E-3,-1.893682219E-2,6.719517522E-3
3.902834055E0,3.665191587E-3,-1.954768784E-2,9.773843922E-3
3.904868593E0,1.832595794E-3,-1.954768784E-2,4.886921961E-3
3.906938170E0,2.443460980E-3,-1.832595654E-2,9.162978269E-3
3.909012939E0,0.000000000E0,-1.893682219E-2,7.941247895E-3
3.910977439E0,3.054326167E-3,-1.893682219E-2,7.941247895E-3
3.912977593E0,2.443460980E-3,-2.138028294E-2,7.941247895E-3
3.915047208E0,1.832595794E-3,-2.015855350E-2,7.330383174E-3
3.917082516E0,1.832595794E-3,-2.199114859E-2,7.941247895E-3
3.919199439E0,6.108652451E-4,-2.382374369E-2,7.330383174E-3
3.921186862E0,-1.832595794E-3,-2.443460934E-2,6.108652335E-3
3.923256747E0,1.221730490E-3,-2.382374369E-2,6.719517522E-3
3.925306939E0,2.443460980E-3,-2.626720630E-2,6.719517522E-3
3.927362401E0,2.443460980E-3,-2.565634064E-2,7.941247895E-3
3.929397324E0,3.054326167E-3,-2.443460934E-2,8.552113548E-3
3.931422516E0,3.665191587E-3,-2.687807009E-2,9.162978269E-3
3.933422247E0,2.443460980E-3,-2.443460934E-2,8.552113548E-3
3.935491439E0,1.221730490E-3,-2.871066704E-2,9.773843922E-3
3.937526554E0,2.443460980E-3,-2.565634064E-2,8.552113548E-3
3.939643324E0,6.108652451E-4,-2.626720630E-2,7.330383174E-3
3.941630516E0,4.886921961E-3,-2.687807009E-2,4.886921961E-3
3.943700554E0,5.497787148E-3,-2.565634064E-2,6.719517522E-3
3.945735824E0,1.221730490E-3,-2.565634064E-2,7.941247895E-3
3.947805208E0,4.886921961E-3,-2.687807009E-2,7.941247895E-3
3.949879362E0,3.054326167E-3,-2.687807009E-2,9.773843922E-3
3.951841939E0,6.108652335E-3,-2.748893574E-2,9.773843922E-3
3.953841977E0,6.719517522E-3,-2.504547499E-2,9.162978269E-3
3.955911516E0,6.719517522E-3,-2.565634064E-2,7.941247895E-3
3.957946016E0,5.497787148E-3,-2.687807009E-2,8.552113548E-3
3.960063324E0,6.719517522E-3,-2.626720630E-2,9.162978269E-3
3.962050862E0,4.886921961E-3,-2.809980139E-2,1.038470957E-2
3.964120785E0,7.941247895E-3,-2.809980139E-2,1.099557430E-2
3.966154824E0,6.108652335E-3,-2.626720630E-2,1.221730467E-2
3.968224670E0,6.719517522E-3,-2.748893574E-2,6.719517522E-3
3.970259400E0,7.941247895E-3,-2.809980139E-2,1.038470957E-2
3.972283862E0,7.330383174E-3,-2.626720630E-2,9.773843922E-3
3.974284093E0,7.941247895E-3,-2.565634064E-2,7.330383174E-3
3.976353285E0,7.941247895E-3,-2.626720630E-2,1.160643995E-2
3.978388054E0,7.330383174E-3,-2.321287990E-2,9.162978269E-3
3.980505247E0,7.941247895E-3,-2.382374369E-2,9.773843922E-3
3.982492439E0,7.330383174E-3,-2.382374369E-2,1.038470957E-2
3.984561862E0,7.330383174E-3,-2.321287990E-2,6.719517522E-3
3.986597016E0,7.330383174E-3,-2.382374369E-2,1.160643995E-2
3.988666708E0,6.108652335E-3,-2.260201424E-2,1.099557430E-2
3.990739323E0,7.330383174E-3,-2.199114859E-2,1.099557430E-2
3.992703785E0,9.773843922E-3,-2.138028294E-2,9.773843922E-3
3.994703862E0,8.552113548E-3,-2.321287990E-2,1.099557430E-2
3.996773054E0,4.886921961E-3,-2.199114859E-2,7.330383174E-3
3.998808016E0,4.886921961E-3,-2.076941915E-2,1.282817032E-2
4.000925285E0,7.330383174E-3,-1.893682219E-2,1.221730467E-2
4.002912516E0,8.552113548E-3,-1.771509275E-2,6.108652335E-3
4.004981439E0,6.719517522E-3,-1.710422710E-2,6.719517522E-3
4.007016285E0,8.552113548E-3,-1.649336144E-2,9.162978269E-3
4.009085708E0,7.941247895E-3,-1.466076635E-2,7.941247895E-3
4.011120208E0,9.162978269E-3,-1.527163107E-2,1.038470957E-2
4.013144746E0,7.941247895E-3,-1.588249579E-2,1.038470957E-2
4.015144285E0,9.773843922E-3,-1.466076635E-2,6.719517522E-3
4.017214246E0,7.941247895E-3,-1.343903504E-2,1.038470957E-2
4.019248169E0,9.773843922E-3,-1.527163107E-2,1.160643995E-2
4.021366362E0,1.099557430E-2,-1.343903504E-2,9.773843922E-3
4.023353516E0,9.162978269E-3,-1.160643995E-2,9.773843922E-3
4.025422862E0,8.552113548E-3,-1.099557430E-2,1.160643995E-2
4.027457900E0,1.160643995E-2,-7.941247895E-3,9.773843922E-3
4.029527746E0,9.162978269E-3,-9.162978269E-3,1.221730467E-2
4.031601246E0,1.099557430E-2,-1.099557430E-2,1.099557430E-2
4.033564785E0,1.404990070E-2,-9.162978269E-3,1.221730467E-2
4.035564208E0,1.099557430E-2,-9.773843922E-3,1.466076635E-2
4.037633631E0,1.099557430E-2,-9.162978269E-3,1.343903504E-2
4.039667977E0,1.221730467E-2,-6.719517522E-3,1.160643995E-2
4.041784746E0,1.221730467E-2,-8.552113548E-3,1.160643995E-2
4.043771708E0,1.343903504E-2,-1.038470957E-2,1.282817032E-2
4.045840939E0,1.282817032E-2,-9.162978269E-3,1.343903504E-2
4.047875785E0,1.221730467E-2,-9.773843922E-3,1.160643995E-2
4.049944900E0,1.099557430E-2,-1.221730467E-2,8.552113548E-3
4.051979439E0,1.404990070E-2,-1.160643995E-2,1.221730467E-2
4.054005362E0,1.160643995E-2,-1.588249579E-2,1.282817032E-2
4.056221823E0,1.466076635E-2,-1.466076635E-2,1.221730467E-2
