"Time (s)","Gyroscope x (rad/s)","Gyroscope y (rad/s)","Gyroscope z (rad/s)"
1.661265400E-2,-2.272418737E-1,7.403686643E-1,2.015855350E-2
1.935946100E-2,-2.565633953E-1,7.977899909E-1,2.076941915E-2
2.077707700E-2,-2.755002379E-1,8.252789378E-1,2.321287990E-2
2.343573100E-2,-2.987131178E-1,8.863654733E-1,2.565634064E-2
2.526438400E-2,-3.164281845E-1,9.498954415E-1,2.504547499E-2
2.727676900E-2,-3.286454976E-1,9.853256345E-1,2.138028294E-2
2.882207700E-2,-3.433062732E-1,1.059240341E0,1.710422710E-2
3.134915400E-2,-3.567453027E-1,1.145983219E0,3.665191587E-3
3.283730700E-2,-3.628539443E-1,1.193019867E0,1.832595794E-3
3.543407700E-2,-3.683517575E-1,1.287093043E0,-9.773843922E-3
3.695469200E-2,-3.720169365E-1,1.374446750E0,-2.565634064E-2
3.951626900E-2,-3.769038618E-1,1.415374756E0,-3.176499158E-2
4.107088400E-2,-3.787364662E-1,1.497841597E0,-3.909537569E-2
4.365615400E-2,-3.811798990E-1,1.564425945E0,-5.070181563E-2
4.549438400E-2,-3.860668242E-1,1.588860512E0,-5.253441259E-2
4.766761500E-2,-3.933972120E-1,1.648114443E0,-6.597344577E-2
4.914900000E-2,-4.123340547E-1,1.714698792E0,-6.719517708E-2
5.196553800E-2,-4.245513380E-1,1.766622305E0,-7.086037099E-2
5.324703800E-2,-4.612032473E-1,1.957212210E0,-8.185594529E-2
5.616977900E-2,-5.033529401E-1,2.211943150E0,-9.224065393E-2
5.734984600E-2,-5.418374538E-1,2.482556343E0,-9.529497474E-2
6.023024000E-2,-5.619960427E-1,2.607783794E0,-9.529497474E-2
6.156415400E-2,-5.998696685E-1,2.824029922E0,-8.735372871E-2
6.433339400E-2,-6.328563690E-1,2.995072365E0,-8.002334833E-2
6.600753800E-2,-6.444628239E-1,3.062878370E0,-7.635815442E-2
6.837158600E-2,-6.597344875E-1,3.202155590E0,-5.192354694E-2
6.962357700E-2,-6.652322412E-1,3.334102392E0,-3.115412779E-2
7.244062500E-2,-6.603453159E-1,3.409849882E0,-1.954768784E-2
7.370226900E-2,-6.407976151E-1,3.561955214E0,1.282817032E-2
7.658627900E-2,-6.096435189E-1,3.686571836E0,4.092797264E-2
7.778411500E-2,-5.882632136E-1,3.740938663E0,5.742133409E-2
8.064631700E-2,-5.424483418E-1,3.844785929E0,9.407325089E-2
8.194726900E-2,-4.880813360E-1,3.941913366E0,1.252273768E-1
8.476427900E-2,-4.575380683E-1,3.988339186E0,1.447750628E-1
8.649638400E-2,-4.043927789E-1,4.057366848E0,1.765400618E-1
8.875942300E-2,-3.488040566E-1,4.086688519E0,2.009746730E-1
9.004623000E-2,-3.249803185E-1,4.085466862E0,2.125810981E-1
9.284880700E-2,-2.858849466E-1,4.049425602E0,2.351831198E-1
9.421534600E-2,-2.565633953E-1,3.987117529E0,2.504547536E-1
9.675634600E-2,-2.357939780E-1,3.872274876E0,2.626720667E-1
9.826942300E-2,-2.254092693E-1,3.787975311E0,2.687807083E-1
1.008461540E-1,-2.083050460E-1,3.585778952E0,2.791654170E-1
1.023942300E-1,-1.954768747E-1,3.354871988E0,2.919935882E-1
1.049310770E-1,-1.899790913E-1,3.229033709E0,2.987131178E-1
1.068569230E-1,-1.802052408E-1,2.977357149E0,3.109304011E-1
1.090340380E-1,-1.673770845E-1,2.737898111E0,3.231477141E-1
1.104972300E-1,-1.643227488E-1,2.621833563E0,3.298672438E-1
1.131533070E-1,-1.569923609E-1,2.408030748E0,3.384193480E-1
1.145926920E-1,-1.551597714E-1,2.219273329E0,3.433062732E-1
1.172822690E-1,-1.490511149E-1,2.134363174E0,3.426954150E-1
1.187040000E-1,-1.478293836E-1,1.979814291E0,3.390302062E-1
1.213596150E-1,-1.404990107E-1,1.835650086E0,3.335324228E-1
1.229048840E-1,-1.386664063E-1,1.767843962E0,3.292563558E-1
1.253466150E-1,-1.337794960E-1,1.640784025E0,3.121521473E-1
1.273149610E-1,-1.252273768E-1,1.524719596E0,2.901609838E-1
1.294476150E-1,-1.191187203E-1,1.466687441E0,2.736676335E-1
1.309154230E-1,-1.075122803E-1,1.353066564E0,2.492330223E-1
1.337121250E-1,-1.007927656E-1,1.232115149E0,2.162462920E-1
1.349993460E-1,-9.834930301E-2,1.166141748E0,1.997529417E-1
1.378615480E-1,-8.857546002E-2,1.032362223E0,1.643227488E-1
1.391743070E-1,-8.429940045E-2,8.888089061E-1,1.307251602E-1
1.419169710E-1,-7.819075137E-2,7.354817390E-1,8.796459436E-2
1.432560380E-1,-7.452555746E-2,6.579018831E-1,6.902777404E-2
1.460202780E-1,-6.902777404E-2,4.917465150E-1,2.321287990E-2
1.477144230E-1,-6.414084882E-2,3.200933933E-1,-2.565634064E-2
1.500862400E-1,-6.414084882E-2,2.327396572E-1,-5.070181563E-2
1.513730770E-1,-6.352998316E-2,5.375614017E-2,-9.590584040E-2
1.541538940E-1,-6.841690838E-2,-1.288925707E-1,-1.398881376E-1
1.555113460E-1,-7.391469181E-2,-2.174680233E-1,-1.557706445E-1
1.583029710E-1,-8.674286306E-2,-3.958406746E-1,-1.905899495E-1
1.595995000E-1,-1.044579595E-1,-5.632177591E-1,-2.180788964E-1
1.623576630E-1,-1.130100712E-1,-6.420193911E-1,-2.309070677E-1
1.636990000E-1,-1.295034289E-1,-7.782423496E-1,-2.443460971E-1
1.664606240E-1,-1.459967941E-1,-8.973610401E-1,-2.498438805E-1
1.683999230E-1,-1.557706445E-1,-9.468411207E-1,-2.504547536E-1
1.704291920E-1,-1.716531366E-1,-1.026253581E0,-2.504547536E-1
1.720415770E-1,-1.844813079E-1,-1.078788042E0,-2.443460971E-1
1.745652300E-1,-1.899790913E-1,-1.098946571E0,-2.425135076E-1
1.761041920E-1,-2.003637999E-1,-1.114218235E0,-2.321287990E-1
1.784561920E-1,-2.113593817E-1,-1.106276989E0,-2.174680233E-1
1.801855000E-1,-2.211332172E-1,-1.075733662E0,-2.021963894E-1
1.825477300E-1,-2.260201424E-1,-1.053742528E0,-1.966986060E-1
1.844449610E-1,-2.376265824E-1,-9.969320893E-1,-1.783726513E-1
1.868006920E-1,-2.455678284E-1,-9.254608750E-1,-1.637118906E-1
1.888020770E-1,-2.541199327E-1,-8.857545853E-1,-1.521054506E-1
1.909108170E-1,-2.602286041E-1,-7.965682745E-1,-1.368338168E-1
1.924650770E-1,-2.681698501E-1,-7.061602473E-1,-1.246165112E-1
1.949725380E-1,-2.724458873E-1,-6.517932415E-1,-1.203404516E-1
1.963525770E-1,-2.785545588E-1,-5.534439087E-1,-1.099557430E-1
1.991280860E-1,-2.846632004E-1,-4.544837475E-1,-1.056796908E-1
2.006755380E-1,-2.871066630E-1,-4.056145251E-1,-1.020144969E-1
2.031833550E-1,-2.895501256E-1,-3.115412891E-1,-9.773843735E-2
2.048430770E-1,-2.938261926E-1,-2.217440903E-1,-9.651670605E-2
2.069832300E-1,-2.913827300E-1,-1.808161139E-1,-9.773843735E-2
2.089457690E-1,-2.913827300E-1,-9.896016866E-2,-9.468411654E-2
2.112058460E-1,-2.901609838E-1,-2.626720630E-2,-1.020144969E-1
2.126136530E-1,-2.932153046E-1,3.665191587E-3,-1.001819000E-1
2.153933550E-1,-2.889392674E-1,5.986479297E-2,-1.044579595E-1
2.166961530E-1,-2.858849466E-1,1.087340117E-1,-1.056796908E-1
2.195419700E-1,-2.864958048E-1,1.441642046E-1,-1.026253626E-1
2.208102690E-1,-2.864958048E-1,1.594358236E-1,-1.007927656E-1
2.235965470E-1,-2.828305960E-1,1.863138974E-1,-1.038470939E-1
2.249588840E-1,-2.840523422E-1,2.003637999E-1,-1.026253626E-1
2.276992780E-1,-2.834414840E-1,2.046398520E-1,-1.014036313E-1
2.294358840E-1,-2.864958048E-1,2.119702399E-1,-9.773843735E-2
2.317367400E-1,-2.858849466E-1,2.113593817E-1,-9.590584040E-2
2.330140380E-1,-2.907718420E-1,2.076941878E-1,-9.162978828E-2
2.358049320E-1,-2.901609838E-1,2.021963894E-1,-9.224065393E-2
2.371162690E-1,-2.944370508E-1,1.912008226E-1,-8.857546002E-2
2.399538550E-1,-2.987131178E-1,1.808161139E-1,-8.368854225E-2
2.419408160E-1,-3.048217595E-1,1.661553532E-1,-8.613199741E-2
2.439661630E-1,-3.121521473E-1,1.478293836E-1,-8.124507964E-2
2.453257690E-1,-3.152064681E-1,1.386664063E-1,-8.002334833E-2
2.480323550E-1,-3.200933933E-1,1.221730486E-1,-7.819075137E-2
2.498893840E-1,-3.262020350E-1,1.032362282E-1,-7.635815442E-2
2.519737300E-1,-3.286454976E-1,9.407325089E-2,-7.574728876E-2
2.533583460E-1,-3.347541690E-1,7.941248268E-2,-7.574728876E-2
2.561529700E-1,-3.426954150E-1,6.597344577E-2,-7.330382615E-2
2.574455760E-1,-3.414736688E-1,6.047565863E-2,-7.391469181E-2
2.600433460E-1,-3.475823104E-1,5.070181563E-2,-7.330382615E-2
2.615690000E-1,-3.512475193E-1,4.642575979E-2,-7.024950534E-2
2.641517690E-1,-3.573561609E-1,4.459316283E-2,-6.841690838E-2
2.656981920E-1,-3.646865487E-1,4.092797264E-2,-6.658431143E-2
2.682831530E-1,-3.695734739E-1,4.581489414E-2,-6.169738993E-2
2.702159610E-1,-3.762930036E-1,4.948008433E-2,-6.230825558E-2
2.723753840E-1,-3.793473244E-1,5.070181563E-2,-5.742133409E-2
2.738285380E-1,-3.854559660E-1,5.864306539E-2,-5.375614017E-2
2.764183070E-1,-3.921754956E-1,6.475171447E-2,-5.253441259E-2
2.778736530E-1,-3.933972120E-1,6.780604273E-2,-5.009094998E-2
2.805392300E-1,-3.976732790E-1,7.574728876E-2,-4.703662544E-2
2.820921920E-1,-3.995058835E-1,8.246681094E-2,-4.459316283E-2
2.845852300E-1,-4.013384581E-1,8.857546002E-2,-4.337143153E-2
2.861257300E-1,-4.001167417E-1,9.407325089E-2,-3.787364438E-2
2.885740000E-1,-4.031710625E-1,9.896016866E-2,-3.665191308E-2
2.905225760E-1,-4.043927789E-1,1.014036313E-1,-3.665191308E-2
2.928031150E-1,-4.068362415E-1,1.007927656E-1,-2.993239649E-2
2.942206150E-1,-4.068362415E-1,1.026253626E-1,-2.932153270E-2
2.969896620E-1,-4.050036669E-1,1.020144969E-1,-2.687807009E-2
2.982913070E-1,-4.050036669E-1,9.712757170E-2,-2.443460934E-2
3.011380850E-1,-4.111123085E-1,9.468411654E-2,-1.649336144E-2
3.024065380E-1,-4.050036669E-1,9.162978828E-2,-2.015855350E-2
3.051911620E-1,-4.037819207E-1,8.429940045E-2,-1.404990070E-2
3.065274230E-1,-4.037819207E-1,7.452555746E-2,-1.343903504E-2
3.092916620E-1,-4.019493461E-1,6.291911751E-2,-9.773843922E-3
3.109960000E-1,-4.007275999E-1,5.864306539E-2,-1.038470957E-2
3.133372010E-1,-3.982841372E-1,4.520402849E-2,-7.330383174E-3
3.145711150E-1,-3.952298164E-1,3.909537569E-2,-7.330383174E-3
3.174036620E-1,-3.952298164E-1,2.321287990E-2,-2.443460980E-3
3.186925380E-1,-3.909537494E-1,7.941247895E-3,-4.276056774E-3
3.215531240E-1,-3.878994286E-1,-1.038470957E-2,6.108652451E-4
3.228770760E-1,-3.848451078E-1,-1.710422710E-2,0.000000000E0
3.256074320E-1,-3.824016452E-1,-3.726277873E-2,-1.221730490E-3
3.269376530E-1,-3.769038618E-1,-5.314527452E-2,6.108652451E-4
3.297090080E-1,-3.750712574E-1,-6.169738993E-2,3.054326167E-3
3.313965000E-1,-3.689626157E-1,-8.063421398E-2,1.832595794E-3
3.336328070E-1,-3.659082949E-1,-9.590584040E-2,5.497787148E-3
3.350192690E-1,-3.640756905E-1,-1.038470939E-1,5.497787148E-3
3.378252780E-1,-3.591887653E-1,-1.197295859E-1,7.941247895E-3
3.392293070E-1,-3.518583775E-1,-1.319468915E-1,1.404990070E-2
3.417586920E-1,-3.494149148E-1,-1.404990107E-1,1.282817032E-2
3.432560380E-1,-3.451388776E-1,-1.521054506E-1,1.771509275E-2
3.458288070E-1,-3.396410644E-1,-1.618792862E-1,1.771509275E-2
3.473812300E-1,-3.365867436E-1,-1.673770845E-1,2.138028294E-2
3.498234610E-1,-3.310889602E-1,-1.747074574E-1,2.565634064E-2
3.519524230E-1,-3.249803185E-1,-1.814269722E-1,2.687807009E-2
3.541410380E-1,-3.213151097E-1,-1.838704348E-1,2.993239649E-2
3.554598460E-1,-3.152064681E-1,-1.850921661E-1,2.993239649E-2
3.580877300E-1,-3.097086847E-1,-1.887573600E-1,3.176499158E-2
3.595473840E-1,-3.023782969E-1,-1.875356287E-1,3.543018550E-2
3.622808070E-1,-2.993239760E-1,-1.881465018E-1,3.787364438E-2
3.637572690E-1,-2.919935882E-1,-1.875356287E-1,3.970624134E-2
3.662544990E-1,-2.846632004E-1,-1.844813079E-1,4.214970022E-2
3.677976530E-1,-2.803871334E-1,-1.820378453E-1,4.214970022E-2
3.702990380E-1,-2.730567753E-1,-1.795943826E-1,4.581489414E-2
3.722119230E-1,-2.638937831E-1,-1.747074574E-1,4.703662544E-2
3.743856530E-1,-2.608394623E-1,-1.716531366E-1,4.948008433E-2
3.758704990E-1,-2.498438805E-1,-1.679879427E-1,5.070181563E-2
3.786712390E-1,-2.394591719E-1,-1.631010175E-1,5.131268129E-2
3.799791530E-1,-2.351831198E-1,-1.588249654E-1,5.009094998E-2
3.828204700E-1,-2.229658216E-1,-1.490511149E-1,5.131268129E-2
3.841563840E-1,-2.119702399E-1,-1.417207420E-1,4.948008433E-2
3.868745080E-1,-2.046398520E-1,-1.380555481E-1,5.131268129E-2
3.882109610E-1,-1.918116808E-1,-1.301143020E-1,5.131268129E-2
3.909758540E-1,-1.771509200E-1,-1.227839142E-1,5.070181563E-2
3.926694990E-1,-1.624901593E-1,-1.123992056E-1,5.375614017E-2
3.950209700E-1,-1.557706445E-1,-1.087340117E-1,5.253441259E-2
3.962879230E-1,-1.404990107E-1,-9.834930301E-2,5.253441259E-2
3.990865850E-1,-1.270599663E-1,-9.162978828E-2,5.436700583E-2
4.004162300E-1,-1.172861308E-1,-8.429940045E-2,5.070181563E-2
4.032356620E-1,-1.038470939E-1,-7.819075137E-2,5.192354694E-2
4.045161530E-1,-8.552113175E-2,-6.780604273E-2,5.009094998E-2
4.072900470E-1,-7.696902007E-2,-6.169738993E-2,5.009094998E-2
4.087037300E-1,-6.169738993E-2,-5.619960278E-2,4.520402849E-2
4.113918930E-1,-4.520402849E-2,-4.459316283E-2,4.459316283E-2
4.131870380E-1,-3.604105115E-2,-4.214970022E-2,4.276056588E-2
4.153152690E-1,-1.893682219E-2,-3.481931984E-2,4.092797264E-2
4.168404990E-1,-4.886921961E-3,-2.687807009E-2,3.970624134E-2
4.195066620E-1,4.886921961E-3,-2.382374369E-2,3.787364438E-2
4.208027690E-1,1.893682219E-2,-1.893682219E-2,3.665191308E-2
4.235448840E-1,3.543018550E-2,-1.282817032E-2,3.420845419E-2
4.249198840E-1,4.153883830E-2,-1.221730467E-2,3.481931984E-2
4.275936920E-1,5.681046844E-2,-6.719517522E-3,3.054326214E-2
4.291671530E-1,7.024950534E-2,-4.886921961E-3,2.871066704E-2
4.316271530E-1,8.491026610E-2,-3.665191587E-3,2.504547499E-2
4.337053070E-1,8.796459436E-2,-2.443460980E-3,2.687807009E-2
4.357008070E-1,1.032362282E-1,1.221730490E-3,2.199114859E-2
4.372242690E-1,1.081231460E-1,3.054326167E-3,2.321287990E-2
4.397353460E-1,1.142318025E-1,3.665191587E-3,1.832595654E-2
4.413033840E-1,1.270599663E-1,5.497787148E-3,1.282817032E-2
4.440404230E-1,1.356120855E-1,7.941247895E-3,1.038470957E-2
4.453409990E-1,1.380555481E-1,8.552113548E-3,6.719517522E-3
4.481270850E-1,1.459967941E-1,1.038470957E-2,4.886921961E-3
4.496589990E-1,1.539380401E-1,1.221730467E-2,1.221730490E-3
4.520291150E-1,1.588249654E-1,1.466076635E-2,-1.832595794E-3
4.538871920E-1,1.637118906E-1,1.710422710E-2,-2.443460980E-3
4.561477300E-1,1.747074574E-1,2.138028294E-2,-9.162978269E-3
4.577048070E-1,1.795943826E-1,2.382374369E-2,-1.099557430E-2
4.603457390E-1,1.838704348E-1,2.871066704E-2,-1.160643995E-2
4.616524990E-1,1.936442852E-1,3.237585723E-2,-1.588249579E-2
4.644947000E-1,2.015855312E-1,3.787364438E-2,-1.954768784E-2
4.657588460E-1,2.101376504E-1,4.092797264E-2,-1.649336144E-2
4.685490080E-1,2.205223590E-1,5.070181563E-2,-2.138028294E-2
4.699421920E-1,2.217440903E-1,5.314527452E-2,-1.771509275E-2
4.726505460E-1,2.315179259E-1,5.925392732E-2,-1.893682219E-2
4.743244990E-1,2.412917763E-1,6.658431143E-2,-2.199114859E-2
4.766958930E-1,2.522873580E-1,7.269296050E-2,-2.321287990E-2
4.779583840E-1,2.565633953E-1,7.757988572E-2,-2.076941915E-2
4.807633160E-1,2.651155293E-1,8.429940045E-2,-1.954768784E-2
4.821457690E-1,2.761110961E-1,9.162978828E-2,-2.138028294E-2
4.849123540E-1,2.809980214E-1,9.407325089E-2,-2.260201424E-2
4.868431150E-1,2.926044464E-1,1.001819000E-1,-2.076941915E-2
4.889219690E-1,3.048217595E-1,1.056796908E-1,-1.710422710E-2
4.902598070E-1,3.109304011E-1,1.081231460E-1,-1.649336144E-2
4.930033160E-1,3.219259977E-1,1.136209369E-1,-1.038470957E-2
4.947862300E-1,3.359758854E-1,1.166752651E-1,-1.282817032E-2
4.969127300E-1,3.439171314E-1,1.185078546E-1,-1.343903504E-2
4.984294610E-1,3.567453027E-1,1.209513173E-1,-1.038470957E-2
5.011070850E-1,3.695734739E-1,1.240056455E-1,-3.665191587E-3
5.024145380E-1,3.781255782E-1,1.227839142E-1,-6.108652335E-3
5.049941920E-1,3.921754956E-1,1.227839142E-1,-1.832595794E-3
5.065096150E-1,4.031710625E-1,1.227839142E-1,1.832595794E-3
5.090988070E-1,4.105014503E-1,1.258382350E-1,1.221730490E-3
5.106364610E-1,4.251621962E-1,1.252273768E-1,9.162978269E-3
5.131058840E-1,4.349360466E-1,1.282816976E-1,1.160643995E-2
5.151813460E-1,4.416555762E-1,1.276708394E-1,1.466076635E-2
5.173485380E-1,4.550946057E-1,1.337794960E-1,1.832595654E-2
5.187656150E-1,4.636467099E-1,1.386664063E-1,2.932153270E-2
5.213787300E-1,4.709770977E-1,1.429424733E-1,2.626720630E-2
5.229178070E-1,4.795292318E-1,1.508837193E-1,3.420845419E-2
5.255292300E-1,4.899139404E-1,1.600466967E-1,3.543018550E-2
5.271009220E-1,4.935791194E-1,1.679879427E-1,3.909537569E-2
5.296118070E-1,4.984660447E-1,1.734857261E-1,4.092797264E-2
5.310609220E-1,5.015203953E-1,1.838704348E-1,4.642575979E-2
5.336518840E-1,5.033529401E-1,1.942551434E-1,4.642575979E-2
5.355282300E-1,5.039638281E-1,1.966986060E-1,5.253441259E-2
5.376698840E-1,5.070181489E-1,2.058615834E-1,5.436700583E-2
5.392249220E-1,5.051855445E-1,2.162462920E-1,5.192354694E-2
5.419564690E-1,5.039638281E-1,2.193006277E-1,5.436700583E-2
5.436694610E-1,5.045747161E-1,2.309070677E-1,5.619960278E-2
5.461074310E-1,5.015203953E-1,2.412917763E-1,5.314527452E-2
5.476950380E-1,4.990769029E-1,2.474004179E-1,5.497787148E-2
5.501620460E-1,4.966334403E-1,2.565633953E-1,5.375614017E-2
5.514853070E-1,4.972442985E-1,2.693915665E-1,5.070181563E-2
5.542640850E-1,4.960225821E-1,2.718350291E-1,5.436700583E-2
5.560118460E-1,4.954117239E-1,2.809980214E-1,5.497787148E-2
5.583088150E-1,4.929682612E-1,2.858849466E-1,5.070181563E-2
5.596238840E-1,4.911356568E-1,2.907718420E-1,5.131268129E-2
5.623758920E-1,4.917465150E-1,2.993239760E-1,5.192354694E-2
5.637034220E-1,4.960225821E-1,3.054326177E-1,4.153883830E-2
5.665254310E-1,4.941899776E-1,3.078760803E-1,4.337143153E-2
5.679207300E-1,4.972442985E-1,3.103195429E-1,4.153883830E-2
5.705805080E-1,4.990769029E-1,3.115412891E-1,3.726277873E-2
5.719273840E-1,5.057964325E-1,3.090978265E-1,3.298672289E-2
5.746821610E-1,5.045747161E-1,3.054326177E-1,3.237585723E-2
5.765170380E-1,5.100724697E-1,3.036000133E-1,2.687807009E-2
5.787303150E-1,5.180137157E-1,2.968805134E-1,2.260201424E-2
5.799905760E-1,5.229006410E-1,2.962696552E-1,1.771509275E-2
5.827986610E-1,5.302310586E-1,2.871066630E-1,1.160643995E-2
5.841506530E-1,5.387831330E-1,2.755002379E-1,6.719517522E-3
5.868192300E-1,5.400048494E-1,2.681698501E-1,4.886921961E-3
5.881982300E-1,5.503895879E-1,2.577851415E-1,-4.276056774E-3
5.907896920E-1,5.626068711E-1,2.437352389E-1,-7.941247895E-3
5.925338450E-1,5.638286471E-1,2.370157093E-1,-1.160643995E-2
5.947847300E-1,5.736024380E-1,2.254092693E-1,-2.015855350E-2
5.968184610E-1,5.833762884E-1,2.131919712E-1,-2.626720630E-2
5.989715760E-1,5.894849896E-1,2.089159191E-1,-3.054326214E-2
6.004400760E-1,6.004805565E-1,1.973094791E-1,-3.970624134E-2
6.030177300E-1,6.102544069E-1,1.887573600E-1,-4.520402849E-2
6.045253450E-1,6.151412725E-1,1.875356287E-1,-4.825835302E-2
6.073637000E-1,6.291912198E-1,1.826487035E-1,-5.803219974E-2
6.086646530E-1,6.383541822E-1,1.789835095E-1,-5.742133409E-2
6.113384990E-1,6.524040699E-1,1.777617931E-1,-6.719517708E-2
6.131969610E-1,6.572909951E-1,1.795943826E-1,-7.269296050E-2
6.153509610E-1,6.676757336E-1,1.832595766E-1,-7.330382615E-2
6.172325380E-1,6.798930168E-1,1.875356287E-1,-8.368854225E-2
6.194987300E-1,6.847799420E-1,1.905899495E-1,-8.613199741E-2
6.209441530E-1,6.914994717E-1,1.960877478E-1,-8.674286306E-2
6.236394300E-1,7.024950385E-1,2.040289938E-1,-9.896016866E-2
6.250019220E-1,7.055493593E-1,2.076941878E-1,-9.896016866E-2
6.277890070E-1,7.128797174E-1,2.162462920E-1,-1.032362282E-1
6.290283450E-1,7.159340382E-1,2.241875380E-1,-1.087340117E-1
6.318424690E-1,7.208209634E-1,2.302961946E-1,-1.154535338E-1
6.331879610E-1,7.238753438E-1,2.382374406E-1,-1.172861308E-1
6.359445070E-1,7.238753438E-1,2.480112910E-1,-1.246165112E-1
6.376334220E-1,7.269296646E-1,2.510656118E-1,-1.270599663E-1
6.399896610E-1,7.269296646E-1,2.620611787E-1,-1.301143020E-1
6.419880070E-1,7.305948138E-1,2.700024247E-1,-1.386664063E-1
6.440565460E-1,7.299839854E-1,2.730567753E-1,-1.398881376E-1
6.453491150E-1,7.342600226E-1,2.840523422E-1,-1.423316002E-1
6.482068530E-1,7.342600226E-1,2.913827300E-1,-1.508837193E-1
6.494345760E-1,7.385360599E-1,3.017674387E-1,-1.545489132E-1
6.522623530E-1,7.397578359E-1,3.054326177E-1,-1.545489132E-1
6.536971920E-1,7.397578359E-1,3.115412891E-1,-1.582140923E-1
6.563642380E-1,7.422012687E-1,3.176499307E-1,-1.631010175E-1
6.580329610E-1,7.428121567E-1,3.213151097E-1,-1.624901593E-1
6.603785380E-1,7.458664775E-1,3.249803185E-1,-1.631010175E-1
6.616886920E-1,7.452555895E-1,3.262020350E-1,-1.637118906E-1
6.644811990E-1,7.452555895E-1,3.262020350E-1,-1.667662114E-1
6.657797690E-1,7.452555895E-1,3.280346394E-1,-1.637118906E-1
6.683380380E-1,7.458664775E-1,3.286454976E-1,-1.618792862E-1
6.698693070E-1,7.476990819E-1,3.280346394E-1,-1.618792862E-1
6.724776920E-1,7.470881939E-1,3.262020350E-1,-1.557706445E-1
6.740673070E-1,7.446447611E-1,3.213151097E-1,-1.521054506E-1
6.765196150E-1,7.452555895E-1,3.213151097E-1,-1.496619880E-1
6.785248450E-1,7.422012687E-1,3.194825351E-1,-1.423316002E-1
6.806542300E-1,7.409795523E-1,3.139847219E-1,-1.368338168E-1
6.821266920E-1,7.409795523E-1,3.115412891E-1,-1.350012124E-1
6.847073840E-1,7.354817390E-1,3.121521473E-1,-1.264491081E-1
6.863176150E-1,7.305948138E-1,3.072652221E-1,-1.227839142E-1
6.890150380E-1,7.263187766E-1,2.999348342E-1,-1.117883399E-1
6.903035760E-1,7.244861722E-1,2.999348342E-1,-1.081231460E-1
6.929855380E-1,7.195992470E-1,2.889392674E-1,-1.075122803E-1
6.945505760E-1,7.141014934E-1,2.706133127E-1,-1.069014147E-1
6.969913450E-1,7.086036801E-1,2.565633953E-1,-1.075122803E-1
6.988933070E-1,6.994407177E-1,2.394591719E-1,-1.209513173E-1
7.010514220E-1,6.853908300E-1,2.309070677E-1,-1.240056455E-1
7.025392300E-1,6.792821288E-1,2.296853364E-1,-1.240056455E-1
7.053206610E-1,6.627888083E-1,2.247984111E-1,-1.221730486E-1
7.066377680E-1,6.420193911E-1,2.254092693E-1,-1.148426682E-1
7.094695840E-1,6.304129362E-1,2.278527319E-1,-1.105666086E-1
7.107719220E-1,6.145304441E-1,2.235766798E-1,-1.081231460E-1
7.135240450E-1,5.962044597E-1,2.241875380E-1,-9.468411654E-2
7.149967680E-1,5.870414972E-1,2.290744632E-1,-8.735372871E-2
7.176245450E-1,5.681046844E-1,2.309070677E-1,-7.024950534E-2
7.192898070E-1,5.455026627E-1,2.333505303E-1,-4.581489414E-2
7.216888150E-1,5.338962078E-1,2.333505303E-1,-3.420845419E-2
7.229485760E-1,5.082398653E-1,2.339613885E-1,-6.719517522E-3
7.257558150E-1,4.862487316E-1,2.260201424E-1,2.138028294E-2
7.270646920E-1,4.752531648E-1,2.229658216E-1,3.359758854E-2
7.299052760E-1,4.544837475E-1,2.223549485E-1,5.314527452E-2
7.317967680E-1,4.343251884E-1,2.443460971E-1,9.101892263E-2
7.339143920E-1,4.159992337E-1,2.834414840E-1,1.350012124E-1
7.354541920E-1,4.031710625E-1,3.042109013E-1,1.600466967E-1
7.379810450E-1,3.909537494E-1,3.353650272E-1,1.997529417E-1
7.399765380E-1,3.927863538E-1,3.494149148E-1,2.180788964E-1
7.419801530E-1,3.995058835E-1,3.518583775E-1,2.211332172E-1
7.432963070E-1,4.159992337E-1,3.469714522E-1,2.217440903E-1
7.460853150E-1,4.361577928E-1,3.335324228E-1,2.107485086E-1
7.474384220E-1,4.471533597E-1,3.231477141E-1,2.034181207E-1
7.502144610E-1,4.593706727E-1,2.974913716E-1,1.942551434E-1
7.515668450E-1,4.624249935E-1,2.663372457E-1,1.850921661E-1
7.541118450E-1,4.581489265E-1,2.492330223E-1,1.789835095E-1
7.557492300E-1,4.428772926E-1,2.119702399E-1,1.704314053E-1
7.580904610E-1,4.196644127E-1,1.716531366E-1,1.679879427E-1
7.600753070E-1,4.050036669E-1,1.508837193E-1,1.649336219E-1
7.622480380E-1,3.689626157E-1,1.136209369E-1,1.643227488E-1
7.637119610E-1,3.286454976E-1,7.208210230E-2,1.582140923E-1
7.663413070E-1,3.036000133E-1,5.009094998E-2,1.569923609E-1
7.678691530E-1,2.565633953E-1,1.099557430E-2,1.527163088E-1
7.705118070E-1,2.083050460E-1,-3.176499158E-2,1.423316002E-1
7.721200380E-1,1.869247705E-1,-5.192354694E-2,1.331686229E-1
7.747291610E-1,1.362229437E-1,-9.407325089E-2,1.227839142E-1
7.761136530E-1,9.224065393E-2,-1.392772794E-1,1.032362282E-1
7.785946150E-1,6.108652428E-2,-1.826487035E-1,7.635815442E-2
7.805259610E-1,4.703662544E-2,-2.015855312E-1,6.230825558E-2
7.827125760E-1,1.527163107E-2,-2.419026345E-1,2.932153270E-2
7.845141150E-1,-8.552113548E-3,-2.712241709E-1,6.108652451E-4
7.869424680E-1,-1.893682219E-2,-2.877175212E-1,-1.282817032E-2
7.882719220E-1,-4.031710699E-2,-3.170390725E-1,-4.459316283E-2
7.910924680E-1,-5.864306539E-2,-3.414736688E-1,-7.208210230E-2
7.923336530E-1,-6.536258012E-2,-3.536909819E-1,-8.307767659E-2
7.951479300E-1,-7.941248268E-2,-3.714060783E-1,-1.087340117E-1
7.966141150E-1,-9.101892263E-2,-3.836233616E-1,-1.282816976E-1
7.992506220E-1,-9.346238524E-2,-3.854559660E-1,-1.356120855E-1
8.009488840E-1,-9.834930301E-2,-3.854559660E-1,-1.557706445E-1
8.032888910E-1,-9.712757170E-2,-3.848451078E-1,-1.692096740E-1
8.045927300E-1,-9.468411654E-2,-3.824016452E-1,-1.716531366E-1
8.073570070E-1,-8.491026610E-2,-3.744603992E-1,-1.857030392E-1
8.087130380E-1,-7.024950534E-2,-3.652974069E-1,-1.948660165E-1
8.115076220E-1,-6.719517708E-2,-3.604104817E-1,-1.942551434E-1
8.128331150E-1,-5.314527452E-2,-3.463605940E-1,-2.058615834E-1
8.155633910E-1,-4.031710699E-2,-3.274237812E-1,-2.101376504E-1
8.170003450E-1,-3.543018550E-2,-3.152064681E-1,-2.083050460E-1
8.196656990E-1,-3.176499158E-2,-2.889392674E-1,-2.138028294E-1
8.213306910E-1,-3.115412779E-2,-2.571742535E-1,-2.089159191E-1
8.236795760E-1,-3.359758854E-2,-2.254092693E-1,-2.028072625E-1
8.251943070E-1,-3.359758854E-2,-2.083050460E-1,-1.985312104E-1
8.277758530E-1,-3.848451003E-2,-1.789835095E-1,-1.838704348E-1
8.291361530E-1,-3.787364438E-2,-1.508837193E-1,-1.814269722E-1
8.317665380E-1,-3.787364438E-2,-1.429424733E-1,-1.783726513E-1
8.332134990E-1,-3.909537569E-2,-1.252273768E-1,-1.692096740E-1
8.358467680E-1,-4.031710699E-2,-1.117883399E-1,-1.618792862E-1
8.373663450E-1,-4.520402849E-2,-1.062905490E-1,-1.618792862E-1
8.398014220E-1,-4.886921868E-2,-9.224065393E-2,-1.527163088E-1
8.421406530E-1,-5.436700583E-2,-8.185594529E-2,-1.417207420E-1
8.439508840E-1,-6.230825558E-2,-7.819075137E-2,-1.343903542E-1
8.454226530E-1,-6.963863969E-2,-7.269296050E-2,-1.246165112E-1
8.481900450E-1,-7.757988572E-2,-7.086037099E-2,-1.166752651E-1
8.495226150E-1,-8.124507964E-2,-7.024950534E-2,-1.117883399E-1
8.522412680E-1,-9.529497474E-2,-7.819075137E-2,-9.651670605E-2
8.536119990E-1,-1.020144969E-1,-8.735372871E-2,-8.857546002E-2
8.561858450E-1,-1.050688252E-1,-9.529497474E-2,-8.735372871E-2
8.577538840E-1,-1.154535338E-1,-1.160643995E-1,-7.819075137E-2
8.602113450E-1,-1.209513173E-1,-1.453859210E-1,-7.208210230E-2
8.622221150E-1,-1.252273768E-1,-1.777617931E-1,-7.452555746E-2
8.644224610E-1,-1.264491081E-1,-1.924225539E-1,-6.963863969E-2
8.659480760E-1,-1.288925707E-1,-2.272418737E-1,-6.658431143E-2
8.686132370E-1,-1.270599663E-1,-2.608394623E-1,-6.902777404E-2
8.699880760E-1,-1.270599663E-1,-2.748893499E-1,-6.780604273E-2
8.727643530E-1,-1.252273768E-1,-3.036000133E-1,-6.352998316E-2
8.740768070E-1,-1.270599663E-1,-3.274237812E-1,-6.475171447E-2
8.768193910E-1,-1.233947799E-1,-3.384193480E-1,-6.597344577E-2
8.782925380E-1,-1.203404516E-1,-3.549126983E-1,-7.024950534E-2
8.809228910E-1,-1.178969890E-1,-3.689626157E-1,-6.902777404E-2
8.828790760E-1,-1.142318025E-1,-3.738495409E-1,-7.147123665E-2
8.849689680E-1,-1.099557430E-1,-3.775147200E-1,-7.513642311E-2
8.862429220E-1,-1.020144969E-1,-3.756821156E-1,-8.246681094E-2
8.890385060E-1,-1.044579595E-1,-3.689626157E-1,-8.185594529E-2
8.903569220E-1,-9.590584040E-2,-3.597996235E-1,-8.613199741E-2
8.931895060E-1,-9.285151958E-2,-3.433062732E-1,-9.224065393E-2
8.947363840E-1,-8.918632567E-2,-3.316998184E-1,-9.468411654E-2
8.972450830E-1,-8.368854225E-2,-3.103195429E-1,-9.834930301E-2
8.988772300E-1,-8.307767659E-2,-2.883284092E-1,-1.014036313E-1
9.013630830E-1,-8.368854225E-2,-2.657263875E-1,-1.038470939E-1
9.032128840E-1,-8.002334833E-2,-2.547308207E-1,-1.044579595E-1
9.052704990E-1,-8.307767659E-2,-2.327396572E-1,-1.050688252E-1
9.067121910E-1,-8.491026610E-2,-2.138028294E-1,-1.062905490E-1
9.094494610E-1,-8.918632567E-2,-2.040289938E-1,-1.014036313E-1
9.107155760E-1,-9.834930301E-2,-1.844813079E-1,-1.032362282E-1
9.134156910E-1,-1.081231460E-1,-1.667662114E-1,-9.529497474E-2
9.150272300E-1,-1.111774743E-1,-1.600466967E-1,-9.712757170E-2
9.174442300E-1,-1.203404516E-1,-1.435533315E-1,-9.773843735E-2
9.192165760E-1,-1.276708394E-1,-1.288925707E-1,-8.979719132E-2
9.214274990E-1,-1.331686229E-1,-1.270599663E-1,-8.552113175E-2
9.234444990E-1,-1.392772794E-1,-1.154535338E-1,-8.552113175E-2
9.256119990E-1,-1.472185254E-1,-1.044579595E-1,-8.124507964E-2
9.270633840E-1,-1.496619880E-1,-1.020144969E-1,-8.185594529E-2
9.296592300E-1,-1.551597714E-1,-9.590584040E-2,-8.185594529E-2
9.313002300E-1,-1.594358236E-1,-9.468411654E-2,-7.696902007E-2
9.338424610E-1,-1.582140923E-1,-9.101892263E-2,-7.880161703E-2
9.353001910E-1,-1.569923609E-1,-9.101892263E-2,-8.063421398E-2
9.378646910E-1,-1.582140923E-1,-9.651670605E-2,-7.757988572E-2
9.395869610E-1,-1.557706445E-1,-9.834930301E-2,-8.063421398E-2
9.419239610E-1,-1.514945775E-1,-1.020144969E-1,-8.002334833E-2
9.438859990E-1,-1.459967941E-1,-1.075122803E-1,-7.941248268E-2
9.460785380E-1,-1.374446750E-1,-1.111774743E-1,-8.246681094E-2
9.475716910E-1,-1.350012124E-1,-1.148426682E-1,-7.757988572E-2
9.503085830E-1,-1.227839142E-1,-1.178969890E-1,-7.757988572E-2
9.515954990E-1,-1.130100712E-1,-1.203404516E-1,-7.757988572E-2
9.544583140E-1,-1.056796908E-1,-1.197295859E-1,-7.757988572E-2
9.557333450E-1,-9.162978828E-2,-1.185078546E-1,-7.147123665E-2
9.585134680E-1,-8.063421398E-2,-1.172861308E-1,-7.147123665E-2
9.598486910E-1,-7.330382615E-2,-1.178969890E-1,-6.841690838E-2
9.626162370E-1,-5.742133409E-2,-1.130100712E-1,-6.414084882E-2
9.643170760E-1,-4.703662544E-2,-1.093448773E-1,-6.169738993E-2
9.666627750E-1,-3.848451003E-2,-1.069014147E-1,-5.925392732E-2
9.679369220E-1,-2.993239649E-2,-1.038470939E-1,-5.742133409E-2
9.707304680E-1,-1.832595654E-2,-1.026253626E-1,-5.681046844E-2
9.720712300E-1,-1.588249579E-2,-9.957103431E-2,-5.375614017E-2
9.748804290E-1,-4.276056774E-3,-9.224065393E-2,-5.253441259E-2
9.768660440E-1,1.832595794E-3,-8.857546002E-2,-5.192354694E-2
9.788899290E-1,5.497787148E-3,-8.429940045E-2,-5.192354694E-2
9.802416910E-1,1.282817032E-2,-8.063421398E-2,-5.192354694E-2
9.829579290E-1,2.015855350E-2,-7.757988572E-2,-4.948008433E-2
9.847011530E-1,1.954768784E-2,-7.757988572E-2,-4.764748737E-2
9.869516140E-1,2.076941915E-2,-7.635815442E-2,-4.703662544E-2
9.884216910E-1,2.076941915E-2,-7.452555746E-2,-4.520402849E-2
9.910684610E-1,1.649336144E-2,-7.819075137E-2,-4.581489414E-2
9.924018450E-1,1.649336144E-2,-7.696902007E-2,-4.337143153E-2
9.949644610E-1,1.160643995E-2,-8.307767659E-2,-4.642575979E-2
9.964905370E-1,3.665191587E-3,-8.796459436E-2,-4.459316283E-2
9.990963840E-1,1.832595794E-3,-9.162978828E-2,-4.581489414E-2
1.000613576E0,-5.497787148E-3,-1.007927656E-1,-5.314527452E-2
1.003213884E0,-1.282817032E-2,-1.087340117E-1,-5.314527452E-2
1.005067114E0,-1.588249579E-2,-1.130100712E-1,-5.558873713E-2
1.007310230E0,-2.260201424E-2,-1.252273768E-1,-5.803219974E-2
1.008749114E0,-3.237585723E-2,-1.343903542E-1,-5.925392732E-2
1.011439999E0,-3.787364438E-2,-1.404990107E-1,-6.047565863E-2
1.013175230E0,-4.337143153E-2,-1.490511149E-1,-6.047565863E-2
1.015482807E0,-5.253441259E-2,-1.582140923E-1,-5.803219974E-2
1.016937768E0,-5.558873713E-2,-1.612684280E-1,-5.619960278E-2
1.019473384E0,-6.169738993E-2,-1.661553532E-1,-5.253441259E-2
1.021123653E0,-6.352998316E-2,-1.710422635E-1,-5.009094998E-2
1.023484191E0,-6.719517708E-2,-1.740965992E-1,-4.764748737E-2
1.025477191E0,-6.780604273E-2,-1.777617931E-1,-4.092797264E-2
1.027811230E0,-6.963863969E-2,-1.771509200E-1,-3.787364438E-2
1.029112730E0,-6.841690838E-2,-1.783726513E-1,-3.176499158E-2
1.031934852E0,-6.475171447E-2,-1.783726513E-1,-2.687807009E-2
1.033195345E0,-6.047565863E-2,-1.747074574E-1,-2.138028294E-2
1.036085275E0,-5.803219974E-2,-1.747074574E-1,-1.282817032E-2
1.037259999E0,-5.803219974E-2,-1.716531366E-1,-9.773843922E-3
1.040141506E0,-5.070181563E-2,-1.624901593E-1,-6.719517522E-3
1.041441461E0,-4.764748737E-2,-1.557706445E-1,1.221730490E-3
1.044244121E0,-4.459316283E-2,-1.527163088E-1,3.665191587E-3
1.045904537E0,-4.031710699E-2,-1.435533315E-1,6.108652335E-3
1.048289852E0,-3.726277873E-2,-1.356120855E-1,1.649336144E-2
1.049603422E0,-3.481931984E-2,-1.319468915E-1,1.710422710E-2
1.052357967E0,-3.054326214E-2,-1.246165112E-1,1.954768784E-2
1.053676461E0,-2.748893574E-2,-1.215621829E-1,2.443460934E-2
1.056509083E0,-2.199114859E-2,-1.197295859E-1,2.504547499E-2
1.057738422E0,-1.771509275E-2,-1.154535338E-1,2.748893574E-2
1.060564698E0,-1.099557430E-2,-1.148426682E-1,3.298672289E-2
1.061911807E0,-7.941247895E-3,-1.130100712E-1,3.115412779E-2
1.064667890E0,0.000000000E0,-1.142318025E-1,3.054326214E-2
1.066400768E0,4.276056774E-3,-1.154535338E-1,3.543018550E-2
1.068551230E0,7.941247895E-3,-1.154535338E-1,3.481931984E-2
1.069990576E0,1.588249579E-2,-1.178969890E-1,3.481931984E-2
1.072784153E0,2.138028294E-2,-1.215621829E-1,3.665191308E-2
1.074078653E0,2.687807009E-2,-1.221730486E-1,3.420845419E-2
1.076646422E0,2.809980139E-2,-1.227839142E-1,3.543018550E-2
1.078175499E0,3.359758854E-2,-1.240056455E-1,3.665191308E-2
1.080742191E0,3.726277873E-2,-1.246165112E-1,3.298672289E-2
1.082297922E0,4.092797264E-2,-1.264491081E-1,3.115412779E-2
1.084776076E0,4.459316283E-2,-1.258382350E-1,3.481931984E-2
1.086796845E0,4.948008433E-2,-1.282816976E-1,2.748893574E-2
1.088940384E0,4.948008433E-2,-1.270599663E-1,2.626720630E-2
1.090460191E0,5.131268129E-2,-1.276708394E-1,2.443460934E-2
1.093140576E0,5.497787148E-2,-1.276708394E-1,1.527163107E-2
1.094577384E0,5.681046844E-2,-1.276708394E-1,1.282817032E-2
1.097225768E0,5.864306539E-2,-1.270599663E-1,1.160643995E-2
1.098598384E0,5.925392732E-2,-1.264491081E-1,4.886921961E-3
1.101286768E0,6.230825558E-2,-1.288925707E-1,-6.108652451E-4
1.102814614E0,6.291911751E-2,-1.276708394E-1,-3.665191587E-3
1.105189614E0,6.230825558E-2,-1.288925707E-1,-7.330383174E-3
1.107369730E0,6.169738993E-2,-1.301143020E-1,-1.221730467E-2
1.109405268E0,6.291911751E-2,-1.301143020E-1,-1.282817032E-2
1.110821653E0,6.291911751E-2,-1.325577646E-1,-1.954768784E-2
1.113641313E0,6.230825558E-2,-1.343903542E-1,-2.321287990E-2
1.115045307E0,5.925392732E-2,-1.362229437E-1,-2.504547499E-2
1.117791467E0,6.291911751E-2,-1.368338168E-1,-3.115412779E-2
1.119011614E0,5.986479297E-2,-1.380555481E-1,-3.176499158E-2
1.121848390E0,5.986479297E-2,-1.380555481E-1,-3.420845419E-2
1.123347460E0,5.619960278E-2,-1.398881376E-1,-3.543018550E-2
1.125952582E0,5.375614017E-2,-1.392772794E-1,-3.481931984E-2
1.127628730E0,5.497787148E-2,-1.404990107E-1,-3.481931984E-2
1.130000082E0,4.948008433E-2,-1.417207420E-1,-3.726277873E-2
1.131291422E0,4.703662544E-2,-1.429424733E-1,-3.665191308E-2
1.134068928E0,4.520402849E-2,-1.441642046E-1,-3.543018550E-2
1.135394922E0,4.459316283E-2,-1.490511149E-1,-3.787364438E-2
1.138220890E0,4.031710699E-2,-1.521054506E-1,-3.665191308E-2
1.139486807E0,4.031710699E-2,-1.551597714E-1,-3.909537569E-2
1.142277428E0,3.726277873E-2,-1.594358236E-1,-3.726277873E-2
1.143619768E0,3.359758854E-2,-1.643227488E-1,-3.909537569E-2
1.146381428E0,3.359758854E-2,-1.661553532E-1,-3.543018550E-2
1.148019460E0,3.298672289E-2,-1.692096740E-1,-3.970624134E-2
1.150397345E0,2.809980139E-2,-1.704314053E-1,-3.909537569E-2
1.151725153E0,2.687807009E-2,-1.722639948E-1,-3.909537569E-2
1.154502582E0,2.260201424E-2,-1.698205322E-1,-3.970624134E-2
1.155780960E0,1.771509275E-2,-1.722639948E-1,-3.665191308E-2
1.158470960E0,1.771509275E-2,-1.698205322E-1,-4.153883830E-2
1.160090999E0,1.527163107E-2,-1.698205322E-1,-4.214970022E-2
1.162462653E0,1.038470957E-2,-1.661553532E-1,-4.092797264E-2
1.164027845E0,4.886921961E-3,-1.637118906E-1,-3.848451003E-2
1.166508345E0,5.497787148E-3,-1.631010175E-1,-4.031710699E-2
1.168492076E0,-6.108652451E-4,-1.588249654E-1,-4.153883830E-2
1.170666076E0,-3.054326167E-3,-1.539380401E-1,-3.787364438E-2
1.172108845E0,-4.276056774E-3,-1.490511149E-1,-3.909537569E-2
1.174701614E0,-7.941247895E-3,-1.453859210E-1,-3.848451003E-2
1.176244576E0,-1.038470957E-2,-1.374446750E-1,-3.543018550E-2
1.178973691E0,-1.282817032E-2,-1.343903542E-1,-3.726277873E-2
1.180267460E0,-1.710422710E-2,-1.282816976E-1,-3.665191308E-2
1.182858037E0,-1.771509275E-2,-1.209513173E-1,-3.298672289E-2
1.184472960E0,-2.382374369E-2,-1.178969890E-1,-3.176499158E-2
1.186932653E0,-2.565634064E-2,-1.123992056E-1,-2.871066704E-2
1.188872614E0,-2.626720630E-2,-1.069014147E-1,-2.626720630E-2
1.191056153E0,-3.115412779E-2,-1.032362282E-1,-2.626720630E-2
1.192559037E0,-3.115412779E-2,-1.007927656E-1,-2.565634064E-2
1.195357967E0,-3.481931984E-2,-9.834930301E-2,-2.076941915E-2
1.196615230E0,-3.543018550E-2,-9.712757170E-2,-2.076941915E-2
1.199508582E0,-3.665191308E-2,-9.712757170E-2,-1.954768784E-2
1.200729807E0,-3.848451003E-2,-9.529497474E-2,-1.771509275E-2
1.203564351E0,-4.092797264E-2,-9.834930301E-2,-1.710422710E-2
1.204889653E0,-3.970624134E-2,-9.834930301E-2,-1.527163107E-2
1.207666851E0,-4.153883830E-2,-9.957103431E-2,-1.527163107E-2
1.209375037E0,-4.214970022E-2,-1.007927656E-1,-1.099557430E-2
1.211711313E0,-4.398229718E-2,-1.001819000E-1,-1.221730467E-2
1.212987691E0,-4.581489414E-2,-1.044579595E-1,-7.330383174E-3
1.215778544E0,-4.642575979E-2,-1.081231460E-1,-2.443460980E-3
1.217111999E0,-4.703662544E-2,-1.087340117E-1,-4.886921961E-3
1.219927659E0,-4.764748737E-2,-1.123992056E-1,-6.108652451E-4
1.221747230E0,-4.825835302E-2,-1.130100712E-1,-6.108652451E-4
1.223938236E0,-5.192354694E-2,-1.154535338E-1,5.497787148E-3
1.225239114E0,-5.070181563E-2,-1.154535338E-1,6.108652335E-3
1.228005813E0,-5.497787148E-2,-1.191187203E-1,9.773843922E-3
1.229882422E0,-5.558873713E-2,-1.221730486E-1,1.221730467E-2
1.231961383E0,-5.619960278E-2,-1.221730486E-1,1.099557430E-2
1.233302191E0,-5.497787148E-2,-1.227839142E-1,1.343903504E-2
1.236098537E0,-5.986479297E-2,-1.227839142E-1,1.649336144E-2
1.237410653E0,-5.986479297E-2,-1.246165112E-1,1.954768784E-2
1.240061460E0,-5.619960278E-2,-1.240056455E-1,1.771509275E-2
1.241519037E0,-6.230825558E-2,-1.270599663E-1,2.504547499E-2
1.244116191E0,-5.925392732E-2,-1.252273768E-1,2.138028294E-2
1.245686807E0,-6.169738993E-2,-1.264491081E-1,2.626720630E-2
1.248120460E0,-6.291911751E-2,-1.264491081E-1,2.382374369E-2
1.250173922E0,-6.230825558E-2,-1.270599663E-1,2.504547499E-2
1.252242922E0,-6.108652428E-2,-1.252273768E-1,2.687807009E-2
1.253741422E0,-6.047565863E-2,-1.246165112E-1,2.626720630E-2
1.256341114E0,-6.047565863E-2,-1.240056455E-1,2.565634064E-2
1.257910845E0,-5.986479297E-2,-1.246165112E-1,2.748893574E-2
1.260559076E0,-6.047565863E-2,-1.233947799E-1,3.054326214E-2
1.261967845E0,-6.108652428E-2,-1.240056455E-1,2.748893574E-2
1.264485230E0,-6.352998316E-2,-1.221730486E-1,3.298672289E-2
1.266050114E0,-6.108652428E-2,-1.178969890E-1,3.176499158E-2
1.268541230E0,-6.169738993E-2,-1.191187203E-1,2.993239649E-2
1.270555614E0,-6.169738993E-2,-1.172861308E-1,3.359758854E-2
1.272664845E0,-6.169738993E-2,-1.136209369E-1,3.420845419E-2
1.274166922E0,-6.352998316E-2,-1.117883399E-1,3.359758854E-2
1.276976082E0,-6.414084882E-2,-1.087340117E-1,3.604105115E-2
1.278230960E0,-6.475171447E-2,-1.044579595E-1,3.726277873E-2
1.281127197E0,-6.780604273E-2,-1.014036313E-1,3.481931984E-2
1.282356614E0,-6.963863969E-2,-9.773843735E-2,3.665191308E-2
1.285182466E0,-7.024950534E-2,-9.407325089E-2,4.092797264E-2
1.286523922E0,-7.330382615E-2,-8.735372871E-2,3.787364438E-2
1.289284851E0,-7.269296050E-2,-8.735372871E-2,3.970624134E-2
1.290951076E0,-7.819075137E-2,-8.124507964E-2,3.848451003E-2
1.293330659E0,-7.819075137E-2,-7.880161703E-2,3.787364438E-2
1.294563999E0,-8.063421398E-2,-7.696902007E-2,4.214970022E-2
1.297399274E0,-8.063421398E-2,-7.269296050E-2,3.726277873E-2
1.298776653E0,-8.307767659E-2,-7.147123665E-2,3.970624134E-2
1.301549889E0,-7.880161703E-2,-7.024950534E-2,3.665191308E-2
1.302912576E0,-8.002334833E-2,-7.024950534E-2,3.726277873E-2
1.305605697E0,-8.124507964E-2,-6.841690838E-2,3.665191308E-2
1.306904845E0,-7.880161703E-2,-6.902777404E-2,3.726277873E-2
1.309724466E0,-8.246681094E-2,-7.024950534E-2,3.909537569E-2
1.311386499E0,-7.880161703E-2,-7.147123665E-2,3.543018550E-2
1.313594845E0,-8.063421398E-2,-7.147123665E-2,3.787364438E-2
1.314989845E0,-7.941248268E-2,-7.635815442E-2,3.909537569E-2
1.317806653E0,-7.635815442E-2,-8.307767659E-2,3.787364438E-2
1.319200191E0,-7.574728876E-2,-8.429940045E-2,3.848451003E-2
1.321684422E0,-7.635815442E-2,-8.918632567E-2,3.909537569E-2
1.323317460E0,-7.635815442E-2,-9.773843735E-2,3.787364438E-2
1.325801383E0,-7.208210230E-2,-1.044579595E-1,3.848451003E-2
1.327368076E0,-7.269296050E-2,-1.069014147E-1,3.970624134E-2
1.329812730E0,-7.330382615E-2,-1.142318025E-1,3.848451003E-2
1.331824191E0,-6.902777404E-2,-1.166752651E-1,3.665191308E-2
1.334062653E0,-7.086037099E-2,-1.178969890E-1,4.214970022E-2
1.335503576E0,-6.902777404E-2,-1.203404516E-1,3.787364438E-2
1.338061306E0,-6.536258012E-2,-1.227839142E-1,3.848451003E-2
1.339528614E0,-6.841690838E-2,-1.264491081E-1,4.153883830E-2
1.342210845E0,-6.536258012E-2,-1.282816976E-1,4.092797264E-2
1.343637422E0,-6.902777404E-2,-1.288925707E-1,4.153883830E-2
1.346241691E0,-6.963863969E-2,-1.295034289E-1,3.970624134E-2
1.347795191E0,-6.841690838E-2,-1.270599663E-1,3.970624134E-2
1.350375037E0,-6.963863969E-2,-1.264491081E-1,4.520402849E-2
1.352216191E0,-6.963863969E-2,-1.264491081E-1,3.848451003E-2
1.354500537E0,-7.024950534E-2,-1.240056455E-1,4.092797264E-2
1.355835422E0,-7.330382615E-2,-1.209513173E-1,4.153883830E-2
1.358680274E0,-7.086037099E-2,-1.185078546E-1,3.848451003E-2
1.359960422E0,-7.452555746E-2,-1.154535338E-1,4.092797264E-2
1.362829620E0,-7.574728876E-2,-1.154535338E-1,4.337143153E-2
1.364032537E0,-8.063421398E-2,-1.099557430E-1,4.092797264E-2
1.366884581E0,-7.696902007E-2,-1.069014147E-1,4.031710699E-2
1.368186730E0,-7.941248268E-2,-1.032362282E-1,4.276056588E-2
1.370987389E0,-8.246681094E-2,-1.038470939E-1,4.092797264E-2
1.372657037E0,-8.185594529E-2,-1.014036313E-1,4.520402849E-2
1.375033389E0,-8.307767659E-2,-9.957103431E-2,4.520402849E-2
1.376357345E0,-8.674286306E-2,-9.712757170E-2,4.703662544E-2
1.379101428E0,-8.491026610E-2,-9.529497474E-2,4.398229718E-2
1.380384191E0,-8.552113175E-2,-9.407325089E-2,4.459316283E-2
1.383253312E0,-8.857546002E-2,-9.407325089E-2,4.214970022E-2
1.384486153E0,-8.918632567E-2,-9.346238524E-2,4.764748737E-2
1.387308466E0,-9.040805697E-2,-9.162978828E-2,4.520402849E-2
1.388609153E0,-8.979719132E-2,-8.857546002E-2,4.092797264E-2
1.391411543E0,-9.529497474E-2,-8.674286306E-2,4.459316283E-2
1.393175768E0,-9.285151958E-2,-8.613199741E-2,4.398229718E-2
1.395327691E0,-9.407325089E-2,-8.124507964E-2,4.276056588E-2
1.396698537E0,-9.590584040E-2,-7.819075137E-2,4.398229718E-2
1.399514883E0,-9.590584040E-2,-7.819075137E-2,4.764748737E-2
1.400813076E0,-9.712757170E-2,-7.391469181E-2,4.398229718E-2
1.403412653E0,-9.590584040E-2,-7.024950534E-2,4.825835302E-2
1.404918922E0,-9.468411654E-2,-6.780604273E-2,4.948008433E-2
1.407516653E0,-9.773843735E-2,-6.597344577E-2,4.886921868E-2
1.409044999E0,-9.590584040E-2,-6.230825558E-2,5.131268129E-2
1.411517922E0,-9.773843735E-2,-6.291911751E-2,5.131268129E-2
1.413530306E0,-9.468411654E-2,-6.047565863E-2,5.131268129E-2
1.415677037E0,-9.285151958E-2,-5.742133409E-2,5.253441259E-2
1.417256730E0,-9.529497474E-2,-5.803219974E-2,5.314527452E-2
1.419725345E0,-9.468411654E-2,-5.681046844E-2,5.253441259E-2
1.421237960E0,-8.979719132E-2,-5.375614017E-2,5.070181563E-2
1.423925268E0,-9.101892263E-2,-5.497787148E-2,5.375614017E-2
1.425391499E0,-8.857546002E-2,-5.497787148E-2,5.558873713E-2
1.427973845E0,-8.796459436E-2,-5.375614017E-2,5.375614017E-2
1.429493691E0,-8.735372871E-2,-5.131268129E-2,5.742133409E-2
1.431927806E0,-8.429940045E-2,-5.009094998E-2,5.436700583E-2
1.433889153E0,-8.552113175E-2,-4.948008433E-2,5.619960278E-2
1.436051460E0,-8.185594529E-2,-5.070181563E-2,5.681046844E-2
1.437534306E0,-8.124507964E-2,-5.009094998E-2,5.619960278E-2
1.440383120E0,-7.941248268E-2,-5.009094998E-2,5.497787148E-2
1.441763922E0,-8.307767659E-2,-5.070181563E-2,5.314527452E-2
1.444535197E0,-8.002334833E-2,-5.131268129E-2,5.375614017E-2
1.445857422E0,-8.124507964E-2,-5.436700583E-2,5.436700583E-2
1.448591543E0,-7.880161703E-2,-5.131268129E-2,5.375614017E-2
1.449962345E0,-7.819075137E-2,-5.497787148E-2,5.131268129E-2
1.452694235E0,-7.880161703E-2,-5.558873713E-2,5.192354694E-2
1.454379537E0,-8.246681094E-2,-5.864306539E-2,5.314527452E-2
1.456742004E0,-7.880161703E-2,-5.864306539E-2,5.070181563E-2
1.458089729E0,-8.185594529E-2,-6.230825558E-2,5.131268129E-2
1.460811196E0,-7.880161703E-2,-6.352998316E-2,4.886921868E-2
1.462144037E0,-8.063421398E-2,-6.536258012E-2,5.009094998E-2
1.464961966E0,-8.063421398E-2,-6.902777404E-2,4.948008433E-2
1.466931768E0,-7.574728876E-2,-6.841690838E-2,4.459316283E-2
1.468973350E0,-7.696902007E-2,-6.902777404E-2,4.764748737E-2
1.470292768E0,-7.391469181E-2,-7.024950534E-2,4.398229718E-2
1.473041466E0,-7.330382615E-2,-6.963863969E-2,4.092797264E-2
1.474761691E0,-7.452555746E-2,-7.208210230E-2,4.276056588E-2
1.476985229E0,-7.208210230E-2,-7.024950534E-2,4.214970022E-2
1.478413306E0,-7.024950534E-2,-7.086037099E-2,4.337143153E-2
1.481162850E0,-6.841690838E-2,-7.147123665E-2,4.337143153E-2
1.482448422E0,-6.841690838E-2,-6.963863969E-2,4.031710699E-2
1.485054153E0,-6.597344577E-2,-6.780604273E-2,4.337143153E-2
1.486546614E0,-6.597344577E-2,-6.963863969E-2,4.214970022E-2
1.489144076E0,-6.658431143E-2,-6.841690838E-2,4.031710699E-2
1.490704499E0,-6.414084882E-2,-7.024950534E-2,4.276056588E-2
1.493200537E0,-6.414084882E-2,-7.147123665E-2,4.276056588E-2
1.495543119E0,-6.414084882E-2,-7.147123665E-2,4.153883830E-2
1.497279806E0,-6.169738993E-2,-7.452555746E-2,4.337143153E-2
1.498778383E0,-6.230825558E-2,-7.452555746E-2,4.581489414E-2
1.501349768E0,-6.352998316E-2,-7.635815442E-2,4.337143153E-2
1.502869114E0,-6.169738993E-2,-7.696902007E-2,4.398229718E-2
1.505528960E0,-6.230825558E-2,-7.941248268E-2,4.398229718E-2
1.506974691E0,-6.291911751E-2,-7.941248268E-2,4.459316283E-2
1.509599422E0,-6.414084882E-2,-7.941248268E-2,4.886921868E-2
1.511196153E0,-6.597344577E-2,-8.429940045E-2,4.948008433E-2
1.513638806E0,-6.597344577E-2,-8.552113175E-2,4.642575979E-2
1.515538076E0,-6.719517708E-2,-8.368854225E-2,5.192354694E-2
1.517827191E0,-6.719517708E-2,-8.552113175E-2,4.764748737E-2
1.519337306E0,-7.024950534E-2,-8.674286306E-2,4.886921868E-2
1.522007042E0,-7.086037099E-2,-8.979719132E-2,5.009094998E-2
1.523468922E0,-7.269296050E-2,-9.040805697E-2,5.009094998E-2
1.526156735E0,-7.269296050E-2,-9.224065393E-2,4.886921868E-2
1.527410076E0,-7.574728876E-2,-9.162978828E-2,4.825835302E-2
1.530211273E0,-7.696902007E-2,-8.979719132E-2,4.825835302E-2
1.531560960E0,-7.757988572E-2,-9.101892263E-2,5.192354694E-2
1.534312658E0,-8.063421398E-2,-9.162978828E-2,5.253441259E-2
1.536011960E0,-8.063421398E-2,-9.101892263E-2,5.558873713E-2
1.538356619E0,-8.124507964E-2,-8.796459436E-2,5.131268129E-2
1.539636422E0,-7.941248268E-2,-8.796459436E-2,5.070181563E-2
1.542424119E0,-8.002334833E-2,-8.552113175E-2,5.131268129E-2
1.543713268E0,-8.063421398E-2,-8.552113175E-2,4.886921868E-2
1.546572658E0,-8.002334833E-2,-8.491026610E-2,4.825835302E-2
1.547835383E0,-8.002334833E-2,-8.185594529E-2,5.009094998E-2
1.550627965E0,-8.063421398E-2,-7.880161703E-2,4.948008433E-2
1.551945114E0,-8.185594529E-2,-7.696902007E-2,4.642575979E-2
1.554730273E0,-8.307767659E-2,-7.452555746E-2,4.886921868E-2
1.556468422E0,-8.307767659E-2,-7.574728876E-2,4.703662544E-2
1.558738191E0,-8.246681094E-2,-7.269296050E-2,4.581489414E-2
1.560033999E0,-8.429940045E-2,-7.208210230E-2,4.948008433E-2
1.562832422E0,-8.124507964E-2,-6.902777404E-2,4.764748737E-2
1.564140383E0,-8.429940045E-2,-6.658431143E-2,4.520402849E-2
1.566795922E0,-8.185594529E-2,-6.475171447E-2,4.703662544E-2
1.568271883E0,-8.368854225E-2,-6.352998316E-2,4.764748737E-2
1.570830691E0,-8.491026610E-2,-6.047565863E-2,4.581489414E-2
1.572400499E0,-8.185594529E-2,-5.986479297E-2,4.398229718E-2
1.574822999E0,-8.246681094E-2,-5.864306539E-2,4.459316283E-2
1.576844306E0,-8.307767659E-2,-5.619960278E-2,4.337143153E-2
1.578979152E0,-8.246681094E-2,-5.619960278E-2,4.276056588E-2
1.580466576E0,-8.124507964E-2,-5.436700583E-2,4.214970022E-2
1.583078999E0,-7.941248268E-2,-5.192354694E-2,4.031710699E-2
1.584561152E0,-8.124507964E-2,-5.253441259E-2,4.581489414E-2
1.587357922E0,-8.124507964E-2,-5.253441259E-2,4.092797264E-2
1.588789383E0,-7.880161703E-2,-5.009094998E-2,4.031710699E-2
1.591271845E0,-7.819075137E-2,-4.948008433E-2,4.153883830E-2
1.592823306E0,-7.941248268E-2,-4.886921868E-2,4.276056588E-2
1.595275652E0,-7.757988572E-2,-4.764748737E-2,3.848451003E-2
1.597206191E0,-7.880161703E-2,-4.642575979E-2,4.153883830E-2
1.599455152E0,-7.880161703E-2,-4.825835302E-2,3.909537569E-2
1.600838999E0,-7.513642311E-2,-4.642575979E-2,3.970624134E-2
1.603687119E0,-7.513642311E-2,-4.642575979E-2,4.092797264E-2
1.604982306E0,-7.330382615E-2,-4.337143153E-2,3.909537569E-2
1.607837350E0,-7.269296050E-2,-4.092797264E-2,3.970624134E-2
1.609039499E0,-7.208210230E-2,-4.214970022E-2,4.214970022E-2
1.611892350E0,-7.513642311E-2,-3.848451003E-2,4.581489414E-2
1.613271306E0,-7.269296050E-2,-3.359758854E-2,4.520402849E-2
1.615994504E0,-7.208210230E-2,-3.176499158E-2,4.581489414E-2
1.617687768E0,-7.330382615E-2,-2.993239649E-2,4.581489414E-2
1.620039657E0,-7.208210230E-2,-2.809980139E-2,4.886921868E-2
1.621318499E0,-7.452555746E-2,-2.382374369E-2,5.070181563E-2
1.624108234E0,-7.452555746E-2,-2.321287990E-2,5.375614017E-2
1.625477499E0,-7.391469181E-2,-1.954768784E-2,5.497787148E-2
1.628257504E0,-7.513642311E-2,-1.832595654E-2,5.253441259E-2
1.629493922E0,-7.330382615E-2,-1.649336144E-2,5.314527452E-2
1.632312927E0,-7.330382615E-2,-1.710422710E-2,5.558873713E-2
1.633638614E0,-7.391469181E-2,-1.588249579E-2,5.314527452E-2
1.636416273E0,-7.452555746E-2,-1.588249579E-2,5.436700583E-2
1.638047960E0,-7.696902007E-2,-1.649336144E-2,5.742133409E-2
1.640353806E0,-7.696902007E-2,-1.649336144E-2,5.436700583E-2
1.641901460E0,-7.330382615E-2,-1.527163107E-2,5.375614017E-2
1.644512152E0,-7.635815442E-2,-1.893682219E-2,5.314527452E-2
1.645849075E0,-7.452555746E-2,-1.527163107E-2,5.375614017E-2
1.648401229E0,-7.391469181E-2,-1.527163107E-2,5.253441259E-2
1.649932537E0,-7.330382615E-2,-1.466076635E-2,5.131268129E-2
1.652533883E0,-7.147123665E-2,-1.404990070E-2,4.825835302E-2
1.654055999E0,-7.147123665E-2,-1.343903504E-2,4.948008433E-2
1.656517345E0,-7.024950534E-2,-1.343903504E-2,4.764748737E-2
1.658625652E0,-6.963863969E-2,-1.099557430E-2,4.703662544E-2
1.660678345E0,-6.841690838E-2,-9.162978269E-3,4.459316283E-2
1.662139306E0,-6.841690838E-2,-6.108652335E-3,4.337143153E-2
1.664741114E0,-6.719517708E-2,-3.054326167E-3,4.276056588E-2
1.666302499E0,-6.658431143E-2,1.221730490E-3,4.459316283E-2
1.668923575E0,-6.475171447E-2,1.221730490E-3,4.337143153E-2
1.670300268E0,-6.719517708E-2,7.330383174E-3,4.398229718E-2
1.673002075E0,-6.475171447E-2,1.099557430E-2,4.214970022E-2
1.674481575E0,-6.719517708E-2,1.343903504E-2,4.520402849E-2
1.676925191E0,-6.597344577E-2,1.771509275E-2,4.520402849E-2
1.678886037E0,-6.780604273E-2,2.138028294E-2,4.398229718E-2
1.681064191E0,-7.024950534E-2,2.260201424E-2,4.153883830E-2
1.682553114E0,-6.719517708E-2,2.565634064E-2,4.459316283E-2
1.685376273E0,-6.536258012E-2,2.993239649E-2,4.276056588E-2
1.686643460E0,-6.597344577E-2,3.176499158E-2,4.214970022E-2
1.689527080E0,-6.352998316E-2,3.420845419E-2,4.031710699E-2
1.690776229E0,-6.108652428E-2,3.665191308E-2,3.970624134E-2
1.693582196E0,-5.681046844E-2,4.153883830E-2,3.726277873E-2
1.694918191E0,-5.742133409E-2,4.214970022E-2,4.337143153E-2
1.697685157E0,-5.436700583E-2,4.459316283E-2,4.031710699E-2
1.699375883E0,-5.375614017E-2,4.825835302E-2,3.604105115E-2
1.701730272E0,-5.253441259E-2,4.886921868E-2,3.787364438E-2
1.702991960E0,-5.131268129E-2,5.009094998E-2,3.665191308E-2
1.705798349E0,-4.948008433E-2,5.314527452E-2,3.237585723E-2
1.707076460E0,-4.825835302E-2,5.436700583E-2,3.298672289E-2
1.709948196E0,-4.642575979E-2,5.619960278E-2,3.176499158E-2
1.711788306E0,-4.214970022E-2,5.803219974E-2,2.748893574E-2
1.713957849E0,-4.214970022E-2,6.169738993E-2,2.993239649E-2
1.715280691E0,-3.787364438E-2,6.658431143E-2,2.748893574E-2
1.718040003E0,-3.604105115E-2,6.902777404E-2,2.382374369E-2
1.719867575E0,-3.359758854E-2,6.902777404E-2,2.382374369E-2
1.721938383E0,-2.993239649E-2,7.391469181E-2,2.199114859E-2
1.723352999E0,-2.565634064E-2,7.819075137E-2,1.710422710E-2
1.726114845E0,-2.748893574E-2,8.063421398E-2,1.832595654E-2
1.727424383E0,-2.260201424E-2,8.552113175E-2,1.893682219E-2
1.730092960E0,-1.954768784E-2,8.918632567E-2,1.588249579E-2
1.731552306E0,-1.954768784E-2,8.979719132E-2,1.588249579E-2
1.734178229E0,-1.710422710E-2,9.101892263E-2,1.649336144E-2
1.735675383E0,-1.404990070E-2,9.285151958E-2,1.527163107E-2
1.738175845E0,-1.099557430E-2,9.407325089E-2,1.404990070E-2
1.740159883E0,-1.099557430E-2,9.651670605E-2,1.343903504E-2
1.742266691E0,-6.719517522E-3,9.468411654E-2,1.282817032E-2
1.743804652E0,-6.108652335E-3,9.529497474E-2,9.162978269E-3
1.746333498E0,-4.886921961E-3,9.590584040E-2,1.282817032E-2
1.747852691E0,6.108652451E-4,9.468411654E-2,7.941247895E-3
1.750599691E0,6.108652451E-4,9.285151958E-2,1.160643995E-2
1.751954575E0,4.886921961E-3,9.162978828E-2,1.038470957E-2
1.754551498E0,6.108652335E-3,8.918632567E-2,8.552113548E-3
1.756111806E0,7.941247895E-3,8.918632567E-2,1.099557430E-2
1.758508614E0,9.773843922E-3,8.796459436E-2,9.773843922E-3
1.760525345E0,1.038470957E-2,8.429940045E-2,8.552113548E-3
1.762663998E0,1.282817032E-2,8.307767659E-2,1.099557430E-2
1.764165075E0,1.527163107E-2,8.246681094E-2,7.330383174E-3
1.766995426E0,1.527163107E-2,8.002334833E-2,7.330383174E-3
1.768295306E0,1.710422710E-2,7.696902007E-2,7.330383174E-3
1.771146195E0,1.710422710E-2,7.513642311E-2,7.330383174E-3
1.772412498E0,1.832595654E-2,7.452555746E-2,6.108652335E-3
1.775201234E0,1.832595654E-2,7.391469181E-2,7.941247895E-3
1.776533652E0,2.138028294E-2,7.391469181E-2,7.330383174E-3
1.779304426E0,2.260201424E-2,7.269296050E-2,5.497787148E-3
1.781090229E0,2.260201424E-2,7.269296050E-2,4.886921961E-3
1.783349195E0,2.504547499E-2,7.391469181E-2,-6.108652451E-4
1.784596998E0,2.687807009E-2,7.086037099E-2,1.221730490E-3
1.787417964E0,2.687807009E-2,7.086037099E-2,2.443460980E-3
1.788697268E0,2.809980139E-2,7.147123665E-2,-6.108652451E-4
1.791567195E0,3.115412779E-2,7.147123665E-2,-1.221730490E-3
1.792787422E0,2.932153270E-2,7.208210230E-2,6.108652451E-4
1.795623618E0,3.298672289E-2,7.330382615E-2,-3.054326167E-3
1.796930729E0,3.481931984E-2,7.391469181E-2,-1.832595794E-3
1.799726772E0,3.359758854E-2,7.452555746E-2,-3.054326167E-3
1.801411306E0,3.481931984E-2,7.452555746E-2,-3.054326167E-3
1.803616960E0,3.604105115E-2,7.819075137E-2,-5.497787148E-3
1.805017345E0,3.787364438E-2,7.757988572E-2,-7.941247895E-3
1.807829614E0,4.092797264E-2,7.696902007E-2,-5.497787148E-3
1.809137652E0,3.909537569E-2,7.635815442E-2,-6.719517522E-3
1.811724498E0,3.970624134E-2,7.757988572E-2,-6.108652335E-3
1.813229691E0,4.398229718E-2,7.880161703E-2,-6.719517522E-3
1.815828614E0,4.520402849E-2,7.941248268E-2,-8.552113548E-3
1.817365768E0,4.581489414E-2,7.941248268E-2,-5.497787148E-3
1.819845845E0,5.131268129E-2,8.002334833E-2,-8.552113548E-3
1.821826806E0,4.764748737E-2,8.246681094E-2,-1.160643995E-2
1.824139883E0,5.253441259E-2,8.185594529E-2,-8.552113548E-3
1.825514575E0,5.375614017E-2,8.063421398E-2,-4.886921961E-3
1.828102845E0,5.681046844E-2,8.124507964E-2,-9.773843922E-3
1.829557422E0,5.619960278E-2,8.124507964E-2,-6.108652335E-3
1.832299652E0,5.681046844E-2,8.063421398E-2,-7.330383174E-3
1.833794537E0,5.986479297E-2,8.124507964E-2,-7.330383174E-3
1.836248460E0,6.230825558E-2,8.063421398E-2,-5.497787148E-3
1.837834922E0,6.230825558E-2,8.124507964E-2,-6.719517522E-3
1.840246191E0,6.597344577E-2,8.185594529E-2,-1.038470957E-2
1.842230191E0,6.475171447E-2,8.063421398E-2,-7.941247895E-3
1.844413729E0,6.597344577E-2,8.063421398E-2,-3.054326167E-3
1.845869075E0,6.902777404E-2,8.063421398E-2,-7.330383174E-3
1.848695926E0,7.147123665E-2,8.246681094E-2,-9.162978269E-3
1.850070883E0,7.086037099E-2,8.185594529E-2,-5.497787148E-3
1.852847041E0,7.391469181E-2,8.063421398E-2,-1.099557430E-2
1.854080229E0,7.391469181E-2,8.063421398E-2,-1.038470957E-2
1.856903003E0,7.574728876E-2,8.368854225E-2,-3.665191587E-3
1.858226075E0,7.880161703E-2,8.307767659E-2,-1.038470957E-2
1.861006041E0,7.880161703E-2,8.124507964E-2,-9.162978269E-3
1.862673498E0,8.002334833E-2,8.246681094E-2,-7.941247895E-3
1.865054580E0,7.941248268E-2,8.613199741E-2,-1.038470957E-2
1.866299729E0,8.063421398E-2,8.735372871E-2,-7.941247895E-3
1.869121656E0,8.185594529E-2,8.674286306E-2,-9.162978269E-3
1.870469652E0,8.185594529E-2,9.224065393E-2,-9.162978269E-3
1.873271195E0,8.063421398E-2,9.162978828E-2,-8.552113548E-3
1.874485306E0,8.185594529E-2,9.407325089E-2,-7.941247895E-3
1.877326849E0,8.185594529E-2,9.590584040E-2,-1.038470957E-2
1.878631845E0,8.185594529E-2,9.896016866E-2,-4.276056774E-3
1.881429579E0,7.819075137E-2,9.896016866E-2,-6.719517522E-3
1.883387460E0,7.819075137E-2,1.032362282E-1,-9.773843922E-3
1.885321229E0,7.941248268E-2,1.087340117E-1,-6.719517522E-3
1.886723921E0,8.002334833E-2,1.087340117E-1,-9.773843922E-3
1.889548887E0,7.757988572E-2,1.081231460E-1,-4.886921961E-3
1.890843998E0,7.696902007E-2,1.093448773E-1,-4.276056774E-3
1.893442460E0,7.635815442E-2,1.099557430E-1,-5.497787148E-3
1.894926229E0,7.696902007E-2,1.105666086E-1,-4.276056774E-3
1.897522883E0,7.635815442E-2,1.117883399E-1,-4.276056774E-3
1.899076845E0,7.513642311E-2,1.117883399E-1,-3.054326167E-3
1.901588191E0,7.208210230E-2,1.111774743E-1,-5.497787148E-3
1.903578191E0,7.452555746E-2,1.123992056E-1,-2.443460980E-3
1.905731191E0,7.147123665E-2,1.111774743E-1,-6.719517522E-3
1.907323614E0,7.147123665E-2,1.105666086E-1,-2.443460980E-3
1.909745498E0,7.269296050E-2,1.099557430E-1,-3.054326167E-3
1.911339921E0,7.086037099E-2,1.087340117E-1,-4.886921961E-3
1.913896883E0,7.086037099E-2,1.093448773E-1,-4.276056774E-3
1.915361921E0,7.086037099E-2,1.093448773E-1,-3.054326167E-3
1.917959998E0,6.902777404E-2,1.062905490E-1,-6.719517522E-3
1.919575921E0,6.780604273E-2,1.081231460E-1,-5.497787148E-3
1.922061421E0,6.841690838E-2,1.081231460E-1,-3.665191587E-3
1.923989114E0,6.719517708E-2,1.056796908E-1,-8.552113548E-3
1.926128883E0,6.780604273E-2,1.087340117E-1,-8.552113548E-3
1.927591729E0,6.902777404E-2,1.069014147E-1,-5.497787148E-3
1.930407964E0,6.597344577E-2,1.093448773E-1,-9.162978269E-3
1.931704345E0,6.719517708E-2,1.081231460E-1,-1.099557430E-2
1.934557848E0,6.597344577E-2,1.105666086E-1,-6.719517522E-3
1.935804537E0,6.658431143E-2,1.123992056E-1,-8.552113548E-3
1.938612618E0,6.719517708E-2,1.148426682E-1,-9.773843922E-3
1.939959960E0,6.719517708E-2,1.148426682E-1,-7.941247895E-3
1.942714695E0,6.902777404E-2,1.191187203E-1,-1.160643995E-2
1.944408845E0,7.147123665E-2,1.203404516E-1,-9.162978269E-3
1.946761464E0,6.780604273E-2,1.215621829E-1,-9.162978269E-3
1.948307037E0,6.963863969E-2,1.227839142E-1,-1.038470957E-2
1.950828810E0,7.208210230E-2,1.264491081E-1,-9.162978269E-3
1.952094152E0,7.391469181E-2,1.246165112E-1,-7.941247895E-3
1.954980118E0,7.330382615E-2,1.276708394E-1,-1.038470957E-2
1.956848960E0,7.513642311E-2,1.319468915E-1,-9.773843922E-3
1.958991964E0,7.635815442E-2,1.288925707E-1,-1.038470957E-2
1.960340075E0,7.757988572E-2,1.313360333E-1,-1.221730467E-2
1.963060310E0,8.002334833E-2,1.343903542E-1,-1.038470957E-2
1.964767306E0,7.880161703E-2,1.337794960E-1,-9.773843922E-3
1.967010344E0,8.124507964E-2,1.343903542E-1,-1.282817032E-2
1.968367960E0,8.124507964E-2,1.343903542E-1,-1.099557430E-2
1.971179810E0,8.246681094E-2,1.368338168E-1,-8.552113548E-3
1.972458075E0,8.307767659E-2,1.343903542E-1,-1.343903504E-2
1.975259421E0,8.491026610E-2,1.350012124E-1,-1.221730467E-2
1.976603498E0,8.491026610E-2,1.350012124E-1,-1.404990070E-2
1.979299691E0,8.979719132E-2,1.362229437E-1,-1.832595654E-2
1.980708768E0,8.979719132E-2,1.362229437E-1,-1.832595654E-2
1.983260383E0,9.162978828E-2,1.368338168E-1,-1.832595654E-2
1.985184652E0,9.162978828E-2,1.362229437E-1,-1.954768784E-2
1.987480037E0,9.346238524E-2,1.368338168E-1,-2.076941915E-2
1.988814998E0,9.834930301E-2,1.374446750E-1,-2.260201424E-2
1.991598964E0,9.896016866E-2,1.392772794E-1,-2.138028294E-2
1.992945268E0,1.020144969E-1,1.392772794E-1,-2.199114859E-2
1.995574998E0,1.050688252E-1,1.423316002E-1,-2.321287990E-2
1.997090114E0,1.062905490E-1,1.429424733E-1,-2.443460934E-2
1.999594075E0,1.081231460E-1,1.447750628E-1,-2.626720630E-2
2.001159614E0,1.099557430E-1,1.472185254E-1,-2.565634064E-2
2.003907464E0,1.142318025E-1,1.466076523E-1,-2.748893574E-2
2.005556806E0,1.178969890E-1,1.490511149E-1,-2.748893574E-2
2.007736614E0,1.166752651E-1,1.527163088E-1,-2.748893574E-2
2.009273614E0,1.203404516E-1,1.514945775E-1,-2.809980139E-2
2.012026810E0,1.215621829E-1,1.539380401E-1,-2.993239649E-2
2.013365960E0,1.221730486E-1,1.527163088E-1,-2.626720630E-2
2.016176810E0,1.246165112E-1,1.533271819E-1,-3.054326214E-2
2.017430114E0,1.288925707E-1,1.521054506E-1,-3.359758854E-2
2.020233579E0,1.288925707E-1,1.521054506E-1,-2.626720630E-2
2.021833460E0,1.301143020E-1,1.521054506E-1,-2.809980139E-2
2.024337540E0,1.331686229E-1,1.496619880E-1,-3.115412779E-2
2.025983344E0,1.380555481E-1,1.459967941E-1,-2.626720630E-2
2.028384348E0,1.350012124E-1,1.466076523E-1,-2.871066704E-2
2.029637691E0,1.392772794E-1,1.441642046E-1,-3.054326214E-2
2.032452425E0,1.423316002E-1,1.398881376E-1,-2.809980139E-2
2.033838844E0,1.429424733E-1,1.368338168E-1,-2.687807009E-2
2.036603963E0,1.423316002E-1,1.350012124E-1,-2.565634064E-2
2.037866460E0,1.447750628E-1,1.307251602E-1,-2.687807009E-2
2.040659963E0,1.459967941E-1,1.264491081E-1,-2.809980139E-2
2.041982075E0,1.453859210E-1,1.246165112E-1,-2.932153270E-2
2.044763463E0,1.484402567E-1,1.209513173E-1,-2.687807009E-2
2.046546998E0,1.514945775E-1,1.166752651E-1,-3.115412779E-2
2.048701960E0,1.484402567E-1,1.166752651E-1,-2.871066704E-2
2.050331729E0,1.484402567E-1,1.136209369E-1,-2.871066704E-2
2.052880421E0,1.521054506E-1,1.160643995E-1,-3.237585723E-2
2.054177998E0,1.514945775E-1,1.117883399E-1,-3.115412779E-2
2.056773460E0,1.508837193E-1,1.117883399E-1,-3.115412779E-2
2.058367768E0,1.521054506E-1,1.136209369E-1,-3.359758854E-2
2.060919229E0,1.490511149E-1,1.142318025E-1,-3.298672289E-2
2.062424268E0,1.490511149E-1,1.142318025E-1,-3.115412779E-2
2.064899421E0,1.490511149E-1,1.178969890E-1,-3.359758854E-2
2.066888537E0,1.478293836E-1,1.215621829E-1,-3.359758854E-2
2.068999498E0,1.490511149E-1,1.221730486E-1,-3.298672289E-2
2.070479075E0,1.459967941E-1,1.258382350E-1,-4.153883830E-2
2.073200114E0,1.484402567E-1,1.288925707E-1,-3.909537569E-2
2.074612421E0,1.441642046E-1,1.313360333E-1,-3.970624134E-2
2.077288691E0,1.429424733E-1,1.362229437E-1,-4.276056588E-2
2.078769921E0,1.447750628E-1,1.380555481E-1,-4.337143153E-2
2.081270152E0,1.417207420E-1,1.380555481E-1,-4.276056588E-2
2.082832998E0,1.386664063E-1,1.404990107E-1,-4.581489414E-2
2.085325152E0,1.368338168E-1,1.441642046E-1,-4.337143153E-2
2.087280421E0,1.380555481E-1,1.459967941E-1,-4.459316283E-2
2.089444229E0,1.350012124E-1,1.466076523E-1,-4.948008433E-2
2.090907575E0,1.331686229E-1,1.502728462E-1,-4.581489414E-2
2.093729271E0,1.331686229E-1,1.502728462E-1,-4.703662544E-2
2.095007883E0,1.288925707E-1,1.539380401E-1,-5.070181563E-2
2.097879194E0,1.276708394E-1,1.527163088E-1,-4.948008433E-2
2.099191691E0,1.270599663E-1,1.563815027E-1,-4.825835302E-2
2.101935117E0,1.252273768E-1,1.545489132E-1,-4.764748737E-2
2.103400037E0,1.270599663E-1,1.563815027E-1,-5.192354694E-2
2.106037156E0,1.215621829E-1,1.563815027E-1,-4.886921868E-2
2.107702037E0,1.221730486E-1,1.539380401E-1,-5.009094998E-2
2.110082694E0,1.227839142E-1,1.527163088E-1,-5.253441259E-2
2.111337844E0,1.215621829E-1,1.545489132E-1,-4.886921868E-2
2.114152463E0,1.215621829E-1,1.533271819E-1,-4.948008433E-2
2.115461152E0,1.209513173E-1,1.521054506E-1,-4.948008433E-2
2.118301579E0,1.197295859E-1,1.490511149E-1,-4.581489414E-2
2.119500575E0,1.203404516E-1,1.484402567E-1,-4.764748737E-2
2.122356540E0,1.191187203E-1,1.466076523E-1,-4.581489414E-2
2.123707306E0,1.172861308E-1,1.441642046E-1,-4.092797264E-2
2.126474925E0,1.197295859E-1,1.404990107E-1,-4.337143153E-2
2.128089998E0,1.178969890E-1,1.398881376E-1,-4.276056588E-2
2.130365537E0,1.185078546E-1,1.362229437E-1,-3.726277873E-2
2.131733229E0,1.160643995E-1,1.343903542E-1,-3.787364438E-2
2.134572152E0,1.160643995E-1,1.307251602E-1,-3.909537569E-2
2.135865306E0,1.136209369E-1,1.276708394E-1,-3.543018550E-2
2.138453267E0,1.178969890E-1,1.240056455E-1,-3.543018550E-2
2.140019152E0,1.148426682E-1,1.209513173E-1,-3.420845419E-2
2.142707883E0,1.154535338E-1,1.172861308E-1,-2.932153270E-2
2.144155575E0,1.130100712E-1,1.154535338E-1,-3.115412779E-2
2.146658191E0,1.130100712E-1,1.099557430E-1,-3.298672289E-2
2.148565306E0,1.087340117E-1,1.044579595E-1,-2.993239649E-2
2.150734152E0,1.081231460E-1,1.038470939E-1,-2.809980139E-2
2.152208421E0,1.087340117E-1,9.896016866E-2,-2.809980139E-2
2.154890344E0,1.087340117E-1,9.529497474E-2,-2.932153270E-2
2.156303267E0,1.056796908E-1,9.040805697E-2,-2.748893574E-2
2.159008921E0,1.062905490E-1,8.857546002E-2,-2.932153270E-2
2.160503691E0,1.044579595E-1,8.429940045E-2,-2.626720630E-2
2.163203386E0,1.032362282E-1,8.185594529E-2,-2.809980139E-2
2.164515191E0,1.001819000E-1,7.941248268E-2,-2.260201424E-2
2.167060806E0,9.896016866E-2,7.391469181E-2,-2.260201424E-2
2.168951460E0,9.651670605E-2,7.024950534E-2,-2.504547499E-2
2.171288691E0,9.529497474E-2,7.086037099E-2,-2.565634064E-2
2.172599152E0,9.529497474E-2,6.719517708E-2,-2.321287990E-2
2.175422809E0,9.101892263E-2,6.169738993E-2,-2.321287990E-2
2.176687306E0,9.285151958E-2,6.291911751E-2,-2.443460934E-2
2.179572117E0,8.674286306E-2,5.986479297E-2,-2.260201424E-2
2.180932690E0,8.552113175E-2,5.558873713E-2,-2.504547499E-2
2.183627732E0,8.246681094E-2,5.497787148E-2,-2.504547499E-2
2.185117960E0,8.246681094E-2,5.436700583E-2,-2.443460934E-2
2.187730578E0,8.124507964E-2,5.192354694E-2,-2.626720630E-2
2.189439267E0,7.819075137E-2,4.886921868E-2,-2.382374369E-2
2.191775655E0,7.696902007E-2,4.764748737E-2,-2.321287990E-2
2.193015921E0,7.574728876E-2,4.825835302E-2,-2.504547499E-2
2.195844040E0,7.513642311E-2,4.948008433E-2,-2.199114859E-2
2.197118114E0,7.574728876E-2,4.886921868E-2,-2.260201424E-2
2.199994424E0,7.696902007E-2,4.948008433E-2,-2.260201424E-2
2.201885614E0,7.269296050E-2,4.948008433E-2,-2.199114859E-2
2.204004347E0,7.269296050E-2,5.009094998E-2,-2.076941915E-2
2.205339229E0,7.147123665E-2,5.253441259E-2,-2.015855350E-2
2.208072232E0,7.208210230E-2,5.131268129E-2,-1.771509275E-2
2.209901537E0,6.963863969E-2,5.314527452E-2,-1.893682219E-2
2.211972844E0,6.658431143E-2,5.192354694E-2,-1.466076635E-2
2.213588960E0,7.086037099E-2,5.314527452E-2,-1.466076635E-2
2.216185306E0,6.780604273E-2,5.375614017E-2,-1.343903504E-2
2.217471383E0,6.841690838E-2,5.436700583E-2,-1.282817032E-2
2.220047190E0,6.658431143E-2,5.314527452E-2,-9.773843922E-3
2.221606344E0,6.719517708E-2,5.253441259E-2,-1.160643995E-2
2.224194152E0,6.658431143E-2,5.070181563E-2,-9.162978269E-3
2.225705614E0,6.536258012E-2,4.825835302E-2,-7.330383174E-3
2.228223460E0,6.047565863E-2,4.948008433E-2,-9.773843922E-3
2.230180883E0,6.047565863E-2,4.642575979E-2,-6.719517522E-3
2.232316921E0,6.047565863E-2,4.214970022E-2,-4.276056774E-3
2.233899267E0,5.986479297E-2,4.092797264E-2,-6.108652335E-3
2.236386998E0,5.925392732E-2,3.848451003E-2,-4.886921961E-3
2.238023998E0,5.681046844E-2,3.665191308E-2,-5.497787148E-3
2.240613960E0,5.681046844E-2,3.237585723E-2,-6.108652335E-3
2.242038383E0,5.558873713E-2,2.932153270E-2,-4.276056774E-3
2.244622421E0,5.497787148E-2,2.871066704E-2,-1.832595794E-3
2.246146537E0,5.192354694E-2,2.748893574E-2,-3.665191587E-3
2.248608498E0,5.436700583E-2,2.443460934E-2,-2.443460980E-3
2.250597690E0,5.192354694E-2,2.260201424E-2,-6.108652451E-4
2.252801844E0,5.131268129E-2,2.138028294E-2,-3.665191587E-3
2.254214998E0,5.314527452E-2,2.321287990E-2,-2.443460980E-3
2.257034193E0,5.253441259E-2,2.321287990E-2,-4.276056774E-3
2.258422614E0,5.192354694E-2,2.199114859E-2,-1.221730490E-3
2.261183386E0,5.314527452E-2,2.260201424E-2,-1.832595794E-3
2.262406229E0,5.497787148E-2,2.443460934E-2,-3.665191587E-3
2.265238309E0,5.375614017E-2,2.443460934E-2,6.108652451E-4
2.266551114E0,5.253441259E-2,2.504547499E-2,1.832595794E-3
2.269339540E0,5.497787148E-2,2.871066704E-2,0.000000000E0
2.271008883E0,5.497787148E-2,2.809980139E-2,6.108652451E-4
2.273385616E0,5.558873713E-2,2.993239649E-2,1.832595794E-3
2.274667690E0,5.497787148E-2,3.237585723E-2,2.443460980E-3
2.277453616E0,5.497787148E-2,3.420845419E-2,2.443460980E-3
2.278773344E0,5.619960278E-2,3.359758854E-2,6.719517522E-3
2.281602578E0,5.497787148E-2,3.604105115E-2,6.108652335E-3
2.282848767E0,5.864306539E-2,3.787364438E-2,5.497787148E-3
2.285656963E0,5.681046844E-2,3.787364438E-2,1.099557430E-2
2.287042152E0,5.742133409E-2,3.909537569E-2,1.038470957E-2
2.289758539E0,5.619960278E-2,4.153883830E-2,1.160643995E-2
2.291377613E0,5.864306539E-2,4.153883830E-2,1.221730467E-2
2.293763575E0,5.864306539E-2,4.214970022E-2,1.282817032E-2
2.295219075E0,5.925392732E-2,4.337143153E-2,1.160643995E-2
2.297839229E0,6.169738993E-2,4.459316283E-2,1.343903504E-2
2.299315844E0,6.169738993E-2,4.214970022E-2,1.404990070E-2
2.301727037E0,6.169738993E-2,4.092797264E-2,1.343903504E-2
2.303250883E0,6.169738993E-2,3.970624134E-2,1.588249579E-2
2.305853498E0,6.414084882E-2,3.909537569E-2,1.221730467E-2
2.307418421E0,6.291911751E-2,3.726277873E-2,1.466076635E-2
2.309861460E0,6.169738993E-2,3.420845419E-2,1.466076635E-2
2.311891306E0,6.352998316E-2,3.420845419E-2,1.221730467E-2
2.314013152E0,6.475171447E-2,3.176499158E-2,1.221730467E-2
2.315461844E0,6.414084882E-2,2.993239649E-2,1.282817032E-2
2.318125806E0,6.536258012E-2,2.748893574E-2,1.221730467E-2
2.319614652E0,6.597344577E-2,2.687807009E-2,1.038470957E-2
2.322445309E0,6.658431143E-2,2.626720630E-2,1.221730467E-2
2.323698537E0,6.658431143E-2,2.565634064E-2,1.038470957E-2
2.326390344E0,6.841690838E-2,2.382374369E-2,9.773843922E-3
2.327851267E0,6.719517708E-2,2.443460934E-2,1.038470957E-2
2.330360421E0,6.902777404E-2,2.626720630E-2,1.038470957E-2
2.332275498E0,7.086037099E-2,2.504547499E-2,8.552113548E-3
2.334507037E0,7.208210230E-2,2.382374369E-2,7.941247895E-3
2.335906960E0,7.086037099E-2,2.138028294E-2,3.054326167E-3
2.338717116E0,7.086037099E-2,2.076941915E-2,9.162978269E-3
2.340019229E0,7.208210230E-2,1.893682219E-2,4.886921961E-3
2.342866308E0,7.086037099E-2,1.832595654E-2,6.108652451E-4
2.344154729E0,7.147123665E-2,1.710422710E-2,4.276056774E-3
2.346920655E0,7.024950534E-2,1.404990070E-2,0.000000000E0
2.348338229E0,7.147123665E-2,1.404990070E-2,-1.221730490E-3
2.351022885E0,7.086037099E-2,1.099557430E-2,6.108652451E-4
2.352791344E0,6.902777404E-2,1.160643995E-2,-3.054326167E-3
2.355067308E0,6.963863969E-2,9.162978269E-3,-2.443460980E-3
2.356384998E0,6.902777404E-2,6.108652335E-3,-1.221730490E-3
2.359134155E0,6.902777404E-2,4.276056774E-3,-1.832595794E-3
2.360495729E0,6.719517708E-2,4.276056774E-3,-2.443460980E-3
2.363282731E0,6.597344577E-2,3.054326167E-3,-4.886921961E-3
2.364584960E0,6.536258012E-2,0.000000000E0,-2.443460980E-3
2.367336962E0,6.658431143E-2,1.832595794E-3,-5.497787148E-3
2.368925883E0,6.597344577E-2,1.221730490E-3,-7.330383174E-3
2.371439308E0,6.414084882E-2,-1.832595794E-3,-5.497787148E-3
2.373189844E0,6.291911751E-2,-3.054326167E-3,-6.719517522E-3
2.375416152E0,6.108652428E-2,-5.497787148E-3,-4.276056774E-3
2.376856690E0,5.986479297E-2,-5.497787148E-3,-8.552113548E-3
2.379555270E0,5.742133409E-2,-7.330383174E-3,-7.941247895E-3
2.380868806E0,5.497787148E-2,-9.162978269E-3,-1.160643995E-2
2.383678383E0,5.681046844E-2,-7.941247895E-3,-1.038470957E-2
2.384961421E0,5.314527452E-2,-8.552113548E-3,-1.221730467E-2
2.387555652E0,5.131268129E-2,-9.162978269E-3,-1.282817032E-2
2.389124767E0,5.192354694E-2,-9.773843922E-3,-1.343903504E-2
2.391537267E0,4.948008433E-2,-9.162978269E-3,-1.343903504E-2
2.393603229E0,4.703662544E-2,-9.773843922E-3,-1.832595654E-2
2.395709998E0,4.764748737E-2,-7.941247895E-3,-1.771509275E-2
2.397187652E0,4.764748737E-2,-8.552113548E-3,-1.588249579E-2
2.399772844E0,4.398229718E-2,-6.108652335E-3,-1.832595654E-2
2.401348729E0,4.337143153E-2,-5.497787148E-3,-1.649336144E-2
2.404011998E0,4.337143153E-2,-6.108652335E-3,-1.954768784E-2
2.405511652E0,4.092797264E-2,-4.276056774E-3,-1.893682219E-2
2.407967998E0,4.031710699E-2,-3.054326167E-3,-1.527163107E-2
2.409609575E0,3.665191308E-2,-3.054326167E-3,-1.466076635E-2
2.412005267E0,3.604105115E-2,-2.443460980E-3,-1.893682219E-2
2.414250806E0,3.420845419E-2,-1.221730490E-3,-1.710422710E-2
2.416074960E0,3.298672289E-2,1.221730490E-3,-1.710422710E-2
2.417606960E0,3.176499158E-2,2.443460980E-3,-1.893682219E-2
2.420396424E0,3.054326214E-2,5.497787148E-3,-1.588249579E-2
2.421728190E0,2.993239649E-2,7.330383174E-3,-1.466076635E-2
2.424545770E0,2.809980139E-2,8.552113548E-3,-1.893682219E-2
2.425835613E0,2.748893574E-2,9.773843922E-3,-1.649336144E-2
2.428600500E0,2.626720630E-2,1.160643995E-2,-1.710422710E-2
2.429950652E0,2.565634064E-2,1.404990070E-2,-2.260201424E-2
2.432702077E0,2.321287990E-2,1.832595654E-2,-1.832595654E-2
2.434399498E0,2.015855350E-2,1.771509275E-2,-1.588249579E-2
2.436746193E0,2.076941915E-2,2.076941915E-2,-1.954768784E-2
2.438127229E0,1.710422710E-2,2.199114859E-2,-1.893682219E-2
2.440812962E0,1.771509275E-2,2.321287990E-2,-1.527163107E-2
2.442352652E0,1.466076635E-2,2.443460934E-2,-1.954768784E-2
2.444961962E0,1.404990070E-2,2.626720630E-2,-1.588249579E-2
2.446928229E0,1.404990070E-2,2.565634064E-2,-1.832595654E-2
2.448972347E0,1.160643995E-2,2.443460934E-2,-2.015855350E-2
2.450366383E0,1.099557430E-2,2.687807009E-2,-2.015855350E-2
2.453037923E0,9.162978269E-3,2.626720630E-2,-2.076941915E-2
2.454821575E0,8.552113548E-3,2.443460934E-2,-2.260201424E-2
2.457069921E0,7.941247895E-3,2.443460934E-2,-2.260201424E-2
2.458704806E0,6.108652335E-3,2.321287990E-2,-2.199114859E-2
2.461158346E0,3.665191587E-3,2.260201424E-2,-2.138028294E-2
2.462537613E0,2.443460980E-3,2.199114859E-2,-1.954768784E-2
2.465141998E0,4.276056774E-3,2.015855350E-2,-2.076941915E-2
2.466745806E0,0.000000000E0,1.832595654E-2,-2.321287990E-2
2.469214036E0,4.276056774E-3,1.649336144E-2,-2.199114859E-2
2.470848883E0,6.108652451E-4,1.404990070E-2,-1.954768784E-2
2.473162536E0,-6.108652451E-4,1.221730467E-2,-2.321287990E-2
2.475344883E0,-6.108652451E-4,8.552113548E-3,-2.015855350E-2
2.477305036E0,1.832595794E-3,4.276056774E-3,-2.199114859E-2
2.478791113E0,6.108652451E-4,6.108652335E-3,-2.443460934E-2
2.481557844E0,-6.108652451E-4,1.221730490E-3,-2.076941915E-2
2.482935806E0,-1.221730490E-3,-1.221730490E-3,-2.321287990E-2
2.485601729E0,-1.832595794E-3,-2.443460980E-3,-2.504547499E-2
2.487266883E0,-1.221730490E-3,-1.832595794E-3,-2.199114859E-2
2.489680652E0,-1.832595794E-3,-4.886921961E-3,-2.260201424E-2
2.491219960E0,-1.832595794E-3,-5.497787148E-3,-2.565634064E-2
2.493632075E0,-3.054326167E-3,-6.108652335E-3,-2.443460934E-2
2.495532421E0,-4.276056774E-3,-9.162978269E-3,-2.565634064E-2
2.497765883E0,-4.886921961E-3,-9.773843922E-3,-2.626720630E-2
2.499273690E0,-4.886921961E-3,-1.099557430E-2,-2.321287990E-2
2.502000346E0,-6.108652335E-3,-1.221730467E-2,-2.321287990E-2
2.503626959E0,-7.941247895E-3,-1.282817032E-2,-2.626720630E-2
2.506149539E0,-7.941247895E-3,-1.527163107E-2,-2.260201424E-2
2.507399229E0,-9.773843922E-3,-1.588249579E-2,-2.321287990E-2
2.510204423E0,-8.552113548E-3,-2.015855350E-2,-2.199114859E-2
2.511559229E0,-8.552113548E-3,-1.771509275E-2,-2.138028294E-2
2.514306808E0,-1.038470957E-2,-1.710422710E-2,-2.443460934E-2
2.516084036E0,-1.404990070E-2,-1.832595654E-2,-2.260201424E-2
2.518351654E0,-1.282817032E-2,-1.893682219E-2,-1.954768784E-2
2.519868998E0,-1.099557430E-2,-1.954768784E-2,-2.321287990E-2
2.522419962E0,-9.773843922E-3,-2.076941915E-2,-2.382374369E-2
2.523758344E0,-1.038470957E-2,-2.199114859E-2,-2.015855350E-2
2.526570115E0,-1.221730467E-2,-2.321287990E-2,-2.504547499E-2
2.527848306E0,-1.221730467E-2,-2.260201424E-2,-2.199114859E-2
2.530624769E0,-1.282817032E-2,-2.382374369E-2,-2.199114859E-2
2.531978075E0,-1.343903504E-2,-2.382374369E-2,-2.443460934E-2
2.534742615E0,-1.099557430E-2,-2.504547499E-2,-2.382374369E-2
2.536482383E0,-1.160643995E-2,-2.626720630E-2,-2.626720630E-2
2.538653998E0,-1.343903504E-2,-2.626720630E-2,-2.565634064E-2
2.540032998E0,-1.099557430E-2,-2.626720630E-2,-2.626720630E-2
2.542843769E0,-1.221730467E-2,-2.687807009E-2,-2.504547499E-2
2.544150806E0,-1.038470957E-2,-2.565634064E-2,-2.260201424E-2
2.546819921E0,-9.773843922E-3,-2.443460934E-2,-2.443460934E-2
2.548253536E0,-1.099557430E-2,-2.504547499E-2,-2.321287990E-2
2.551048423E0,-1.038470957E-2,-2.443460934E-2,-2.138028294E-2
2.552422959E0,-8.552113548E-3,-2.382374369E-2,-2.260201424E-2
2.554982421E0,-7.330383174E-3,-2.260201424E-2,-1.832595654E-2
2.556894883E0,-3.054326167E-3,-2.199114859E-2,-2.199114859E-2
2.559197808E0,-6.719517522E-3,-2.138028294E-2,-1.893682219E-2
2.560453921E0,-3.665191587E-3,-2.138028294E-2,-1.954768784E-2
2.563255306E0,-6.108652335E-3,-2.015855350E-2,-2.015855350E-2
2.564646344E0,-4.276056774E-3,-1.893682219E-2,-1.832595654E-2
2.567414885E0,-2.443460980E-3,-2.015855350E-2,-1.954768784E-2
2.568772729E0,-1.221730490E-3,-1.832595654E-2,-1.893682219E-2
2.571307652E0,1.832595794E-3,-2.015855350E-2,-1.588249579E-2
2.572821036E0,1.832595794E-3,-1.954768784E-2,-1.832595654E-2
2.575397383E0,4.276056774E-3,-1.893682219E-2,-1.893682219E-2
2.577291729E0,3.665191587E-3,-2.138028294E-2,-1.893682219E-2
2.579429844E0,3.054326167E-3,-2.199114859E-2,-1.771509275E-2
2.580971729E0,6.719517522E-3,-2.321287990E-2,-1.893682219E-2
2.583689423E0,5.497787148E-3,-2.443460934E-2,-1.771509275E-2
2.585053613E0,3.665191587E-3,-2.626720630E-2,-1.832595654E-2
2.587839038E0,7.941247895E-3,-2.565634064E-2,-1.710422710E-2
2.589102652E0,7.941247895E-3,-2.871066704E-2,-1.832595654E-2
2.591892538E0,6.719517522E-3,-2.932153270E-2,-1.588249579E-2
2.593426536E0,7.330383174E-3,-2.932153270E-2,-1.771509275E-2
2.595993731E0,7.330383174E-3,-2.932153270E-2,-1.649336144E-2
2.597852421E0,1.038470957E-2,-2.993239649E-2,-1.771509275E-2
2.600038884E0,7.330383174E-3,-3.420845419E-2,-1.527163107E-2
2.601293421E0,1.038470957E-2,-3.115412779E-2,-1.832595654E-2
2.604106038E0,9.162978269E-3,-3.176499158E-2,-2.015855350E-2
2.605446575E0,1.099557430E-2,-3.176499158E-2,-1.649336144E-2
2.608255538E0,9.162978269E-3,-3.298672289E-2,-2.015855350E-2
2.609511152E0,1.221730467E-2,-3.298672289E-2,-2.138028294E-2
2.612310307E0,9.773843922E-3,-3.237585723E-2,-2.076941915E-2
2.613693459E0,1.160643995E-2,-3.359758854E-2,-2.138028294E-2
2.616411307E0,1.160643995E-2,-3.298672289E-2,-1.954768784E-2
2.618224690E0,1.221730467E-2,-3.420845419E-2,-2.260201424E-2
2.620410536E0,1.282817032E-2,-3.359758854E-2,-2.321287990E-2
2.621737036E0,1.282817032E-2,-3.420845419E-2,-2.382374369E-2
2.624527575E0,1.404990070E-2,-3.115412779E-2,-2.626720630E-2
2.625876036E0,1.099557430E-2,-3.481931984E-2,-2.260201424E-2
2.628407421E0,1.099557430E-2,-3.481931984E-2,-2.260201424E-2
2.629920575E0,1.343903504E-2,-3.298672289E-2,-2.504547499E-2
2.632550729E0,1.404990070E-2,-3.237585723E-2,-2.748893574E-2
2.634071536E0,1.404990070E-2,-3.543018550E-2,-2.626720630E-2
2.636550652E0,1.649336144E-2,-3.543018550E-2,-2.504547499E-2
2.638616998E0,1.588249579E-2,-3.726277873E-2,-2.626720630E-2
2.640686306E0,1.527163107E-2,-3.543018550E-2,-2.626720630E-2
2.642411382E0,1.649336144E-2,-3.970624134E-2,-2.565634064E-2
2.644806767E0,1.710422710E-2,-4.153883830E-2,-2.687807009E-2
2.646435613E0,1.588249579E-2,-4.031710699E-2,-2.626720630E-2
2.649057267E0,1.588249579E-2,-4.092797264E-2,-2.871066704E-2
2.650416921E0,1.771509275E-2,-4.092797264E-2,-2.871066704E-2
2.652920998E0,1.771509275E-2,-4.276056588E-2,-3.115412779E-2
2.654470998E0,1.832595654E-2,-4.703662544E-2,-2.626720630E-2
2.656985882E0,1.832595654E-2,-4.886921868E-2,-2.993239649E-2
2.658972498E0,1.893682219E-2,-4.948008433E-2,-2.871066704E-2
2.661097113E0,1.771509275E-2,-4.948008433E-2,-2.809980139E-2
2.662605806E0,1.466076635E-2,-5.314527452E-2,-3.115412779E-2
2.665372692E0,1.588249579E-2,-5.436700583E-2,-2.932153270E-2
2.666916575E0,1.771509275E-2,-5.558873713E-2,-2.871066704E-2
2.669522461E0,1.771509275E-2,-5.681046844E-2,-3.237585723E-2
2.670769613E0,1.710422710E-2,-5.803219974E-2,-3.237585723E-2
2.673577730E0,1.710422710E-2,-5.742133409E-2,-3.115412779E-2
2.674994806E0,1.832595654E-2,-5.864306539E-2,-3.359758854E-2
2.677679653E0,1.771509275E-2,-5.925392732E-2,-3.115412779E-2
2.679352921E0,1.710422710E-2,-5.925392732E-2,-3.237585723E-2
2.681725576E0,1.649336144E-2,-5.925392732E-2,-3.237585723E-2
2.682965844E0,1.771509275E-2,-5.742133409E-2,-3.237585723E-2
2.685793615E0,1.710422710E-2,-6.108652428E-2,-2.871066704E-2
2.687368421E0,1.588249579E-2,-5.864306539E-2,-3.359758854E-2
2.689943076E0,1.710422710E-2,-5.681046844E-2,-3.298672289E-2
2.691800921E0,1.527163107E-2,-5.619960278E-2,-3.176499158E-2
2.693951653E0,1.588249579E-2,-5.497787148E-2,-3.115412779E-2
2.695361998E0,1.160643995E-2,-5.497787148E-2,-2.809980139E-2
2.698018230E0,1.221730467E-2,-5.619960278E-2,-3.298672289E-2
2.699860459E0,1.404990070E-2,-5.497787148E-2,-3.237585723E-2
2.701962344E0,1.588249579E-2,-5.253441259E-2,-3.115412779E-2
2.703622767E0,1.404990070E-2,-5.192354694E-2,-2.871066704E-2
2.706130806E0,1.343903504E-2,-5.070181563E-2,-2.932153270E-2
2.707445729E0,1.282817032E-2,-4.825835302E-2,-3.176499158E-2
2.710026036E0,1.588249579E-2,-4.886921868E-2,-3.054326214E-2
2.711535267E0,1.221730467E-2,-4.948008433E-2,-3.115412779E-2
2.714109536E0,1.160643995E-2,-4.886921868E-2,-2.871066704E-2
2.715670767E0,1.404990070E-2,-4.886921868E-2,-2.932153270E-2
2.718196267E0,1.343903504E-2,-4.764748737E-2,-3.115412779E-2
2.720161729E0,1.221730467E-2,-4.764748737E-2,-3.054326214E-2
2.722411190E0,9.773843922E-3,-4.764748737E-2,-2.809980139E-2
2.723752690E0,1.282817032E-2,-4.886921868E-2,-2.993239649E-2
2.726500305E0,1.038470957E-2,-4.886921868E-2,-2.871066704E-2
2.727883498E0,1.221730467E-2,-4.642575979E-2,-3.115412779E-2
2.730540190E0,8.552113548E-3,-4.948008433E-2,-2.993239649E-2
2.731936805E0,1.160643995E-2,-4.886921868E-2,-3.054326214E-2
2.734582613E0,9.773843922E-3,-5.192354694E-2,-2.932153270E-2
2.736093113E0,9.773843922E-3,-4.764748737E-2,-3.054326214E-2
2.738584075E0,8.552113548E-3,-4.948008433E-2,-2.932153270E-2
2.740524382E0,7.330383174E-3,-4.886921868E-2,-2.871066704E-2
2.742731844E0,8.552113548E-3,-4.948008433E-2,-2.687807009E-2
2.744217882E0,9.162978269E-3,-4.825835302E-2,-3.054326214E-2
2.746980268E0,6.719517522E-3,-4.886921868E-2,-2.260201424E-2
2.748484190E0,7.941247895E-3,-4.948008433E-2,-2.993239649E-2
2.751129576E0,7.941247895E-3,-4.948008433E-2,-2.932153270E-2
2.752395575E0,6.108652335E-3,-5.009094998E-2,-2.809980139E-2
2.755184038E0,4.276056774E-3,-4.886921868E-2,-3.115412779E-2
2.756548421E0,6.108652335E-3,-4.886921868E-2,-2.993239649E-2
2.759285845E0,5.497787148E-3,-5.070181563E-2,-2.809980139E-2
2.760985421E0,2.443460980E-3,-5.070181563E-2,-3.237585723E-2
2.763330807E0,3.054326167E-3,-5.009094998E-2,-3.054326214E-2
2.764579690E0,1.832595794E-3,-4.703662544E-2,-3.115412779E-2
2.767398038E0,1.832595794E-3,-4.703662544E-2,-3.054326214E-2
2.768678036E0,0.000000000E0,-4.642575979E-2,-3.298672289E-2
2.771548461E0,-1.221730490E-3,-4.520402849E-2,-2.993239649E-2
2.772736729E0,-6.108652451E-4,-4.520402849E-2,-3.298672289E-2
2.775603499E0,6.108652451E-4,-4.459316283E-2,-3.176499158E-2
2.776911998E0,-2.443460980E-3,-4.276056588E-2,-3.237585723E-2
2.779706115E0,-6.108652451E-4,-4.276056588E-2,-3.298672289E-2
2.781460729E0,-1.221730490E-3,-4.153883830E-2,-3.115412779E-2
2.783623036E0,-2.443460980E-3,-4.092797264E-2,-3.115412779E-2
2.785019459E0,-1.832595794E-3,-4.153883830E-2,-3.176499158E-2
2.787765729E0,0.000000000E0,-3.970624134E-2,-3.054326214E-2
2.789188036E0,0.000000000E0,-3.787364438E-2,-3.543018550E-2
2.791721921E0,-6.108652451E-4,-3.787364438E-2,-2.993239649E-2
2.793236190E0,-6.108652451E-4,-3.665191308E-2,-3.298672289E-2
2.795706229E0,-2.443460980E-3,-3.237585723E-2,-3.481931984E-2
2.797277613E0,6.108652451E-4,-3.115412779E-2,-3.359758854E-2
2.799709998E0,6.108652451E-4,-2.993239649E-2,-3.481931984E-2
2.801746459E0,6.108652451E-4,-2.748893574E-2,-3.543018550E-2
2.803895036E0,-1.221730490E-3,-2.504547499E-2,-3.115412779E-2
2.805407767E0,0.000000000E0,-2.138028294E-2,-3.176499158E-2
2.808009652E0,6.108652451E-4,-2.076941915E-2,-3.420845419E-2
2.809490613E0,-3.054326167E-3,-1.710422710E-2,-3.054326214E-2
2.812169382E0,-1.221730490E-3,-1.404990070E-2,-3.237585723E-2
2.813561729E0,0.000000000E0,-1.282817032E-2,-3.359758854E-2
2.816166036E0,-2.443460980E-3,-1.038470957E-2,-2.993239649E-2
2.817731998E0,-4.276056774E-3,-9.162978269E-3,-2.932153270E-2
2.820166728E0,-3.054326167E-3,-7.941247895E-3,-3.359758854E-2
2.822124152E0,-1.221730490E-3,-5.497787148E-3,-3.054326214E-2
2.824313652E0,-6.108652451E-4,-3.054326167E-3,-2.993239649E-2
2.825791075E0,-3.054326167E-3,-3.054326167E-3,-2.932153270E-2
2.828619922E0,-2.443460980E-3,-2.443460980E-3,-2.871066704E-2
2.829923882E0,-4.886921961E-3,0.000000000E0,-3.237585723E-2
2.832770114E0,-2.443460980E-3,-1.832595794E-3,-3.237585723E-2
2.834030459E0,-1.221730490E-3,6.108652451E-4,-3.054326214E-2
2.836824384E0,-4.276056774E-3,-1.832595794E-3,-2.748893574E-2
2.838149305E0,-1.221730490E-3,-3.665191587E-3,-3.054326214E-2
2.840925307E0,-3.665191587E-3,-4.276056774E-3,-2.993239649E-2
2.842761190E0,-3.054326167E-3,-7.330383174E-3,-2.932153270E-2
2.844970460E0,6.108652451E-4,-9.162978269E-3,-3.054326214E-2
2.846397228E0,-1.221730490E-3,-1.038470957E-2,-2.993239649E-2
2.849037653E0,-6.108652451E-4,-1.404990070E-2,-2.687807009E-2
2.850298305E0,1.221730490E-3,-1.649336144E-2,-2.993239649E-2
2.853186614E0,-1.221730490E-3,-1.832595654E-2,-2.932153270E-2
2.854402421E0,3.054326167E-3,-1.893682219E-2,-2.809980139E-2
2.857239730E0,3.054326167E-3,-2.138028294E-2,-3.237585723E-2
2.858562113E0,3.054326167E-3,-2.321287990E-2,-3.054326214E-2
2.861340422E0,6.108652335E-3,-2.504547499E-2,-2.748893574E-2
2.863047728E0,7.941247895E-3,-2.748893574E-2,-3.298672289E-2
2.865214767E0,6.719517522E-3,-2.809980139E-2,-2.871066704E-2
2.866705228E0,8.552113548E-3,-2.748893574E-2,-2.809980139E-2
2.869434267E0,1.099557430E-2,-2.871066704E-2,-2.993239649E-2
2.870719267E0,9.162978269E-3,-3.115412779E-2,-2.687807009E-2
2.873290652E0,1.099557430E-2,-2.993239649E-2,-2.748893574E-2
2.874800498E0,1.221730467E-2,-3.115412779E-2,-2.809980139E-2
2.877421075E0,1.343903504E-2,-2.871066704E-2,-2.565634064E-2
2.878971882E0,1.343903504E-2,-2.871066704E-2,-2.504547499E-2
2.881506998E0,1.771509275E-2,-2.932153270E-2,-2.687807009E-2
2.883578959E0,1.710422710E-2,-2.809980139E-2,-2.321287990E-2
2.885581267E0,1.466076635E-2,-2.871066704E-2,-2.504547499E-2
2.887020498E0,1.893682219E-2,-2.687807009E-2,-2.382374369E-2
2.889597036E0,1.954768784E-2,-2.504547499E-2,-2.687807009E-2
2.891100228E0,2.076941915E-2,-2.504547499E-2,-2.504547499E-2
2.893820882E0,2.138028294E-2,-2.138028294E-2,-2.626720630E-2
2.895225075E0,1.954768784E-2,-1.893682219E-2,-2.321287990E-2
2.897821382E0,2.076941915E-2,-1.710422710E-2,-2.199114859E-2
2.899405575E0,1.954768784E-2,-1.404990070E-2,-2.626720630E-2
2.901820228E0,2.076941915E-2,-1.038470957E-2,-2.260201424E-2
2.903812267E0,2.260201424E-2,-7.941247895E-3,-2.260201424E-2
2.905951152E0,2.260201424E-2,-6.719517522E-3,-2.382374369E-2
2.907427036E0,2.321287990E-2,-4.886921961E-3,-2.015855350E-2
2.910297499E0,2.504547499E-2,-3.665191587E-3,-1.893682219E-2
2.911530075E0,2.382374369E-2,-1.832595794E-3,-2.138028294E-2
2.914446999E0,2.382374369E-2,1.832595794E-3,-2.015855350E-2
2.915651344E0,2.565634064E-2,3.054326167E-3,-2.138028294E-2
2.918500845E0,2.443460934E-2,4.276056774E-3,-1.771509275E-2
2.919838575E0,2.687807009E-2,5.497787148E-3,-1.649336144E-2
2.922601575E0,2.809980139E-2,7.330383174E-3,-1.710422710E-2
2.924228459E0,2.871066704E-2,7.941247895E-3,-1.771509275E-2
2.926644614E0,3.115412779E-2,1.099557430E-2,-1.466076635E-2
2.927857151E0,3.176499158E-2,1.160643995E-2,-1.649336144E-2
2.930711883E0,3.237585723E-2,1.343903504E-2,-1.710422710E-2
2.932032690E0,3.420845419E-2,1.466076635E-2,-1.527163107E-2
2.934860960E0,3.604105115E-2,1.588249579E-2,-1.343903504E-2
2.936732575E0,3.665191308E-2,1.954768784E-2,-1.404990070E-2
2.938870999E0,3.848451003E-2,1.954768784E-2,-1.404990070E-2
2.940109459E0,4.153883830E-2,2.199114859E-2,-1.343903504E-2
2.942952614E0,4.092797264E-2,2.199114859E-2,-1.160643995E-2
2.944613805E0,4.276056588E-2,2.260201424E-2,-1.343903504E-2
2.946800036E0,4.581489414E-2,2.199114859E-2,-1.343903504E-2
2.948186651E0,4.459316283E-2,2.138028294E-2,-1.282817032E-2
2.950996536E0,4.581489414E-2,1.893682219E-2,-1.404990070E-2
2.952315651E0,4.703662544E-2,1.893682219E-2,-1.404990070E-2
2.954874998E0,4.764748737E-2,1.832595654E-2,-1.404990070E-2
2.956438882E0,4.642575979E-2,1.527163107E-2,-1.588249579E-2
2.959197498E0,5.009094998E-2,1.282817032E-2,-1.588249579E-2
2.960556651E0,4.825835302E-2,1.221730467E-2,-1.282817032E-2
2.963212844E0,4.886921868E-2,7.941247895E-3,-1.832595654E-2
2.965064344E0,4.642575979E-2,4.886921961E-3,-1.343903504E-2
2.967271575E0,4.948008433E-2,4.276056774E-3,-1.282817032E-2
2.968767613E0,4.520402849E-2,1.832595794E-3,-1.466076635E-2
2.971220959E0,4.581489414E-2,-6.108652451E-4,-1.038470957E-2
2.972733575E0,4.825835302E-2,-3.665191587E-3,-1.466076635E-2
2.975398305E0,4.581489414E-2,-6.719517522E-3,-1.588249579E-2
2.976832228E0,4.337143153E-2,-7.330383174E-3,-1.221730467E-2
2.979409075E0,4.581489414E-2,-1.160643995E-2,-1.099557430E-2
2.980980036E0,4.520402849E-2,-1.343903504E-2,-1.099557430E-2
2.983462921E0,4.092797264E-2,-1.404990070E-2,-1.221730467E-2
2.985397728E0,4.092797264E-2,-1.710422710E-2,-1.038470957E-2
2.987569459E0,3.970624134E-2,-1.649336144E-2,-1.160643995E-2
2.989056075E0,3.970624134E-2,-2.015855350E-2,-1.282817032E-2
2.991897652E0,3.787364438E-2,-1.893682219E-2,-1.038470957E-2
2.993143536E0,3.665191308E-2,-2.076941915E-2,-9.773843922E-3
2.996046498E0,3.481931984E-2,-2.015855350E-2,-1.099557430E-2
2.997274805E0,3.298672289E-2,-2.199114859E-2,-8.552113548E-3
3.000099421E0,3.481931984E-2,-2.076941915E-2,-1.038470957E-2
3.001380459E0,3.298672289E-2,-2.015855350E-2,-6.719517522E-3
3.004200267E0,3.237585723E-2,-1.954768784E-2,-6.719517522E-3
3.005870228E0,2.809980139E-2,-2.076941915E-2,-5.497787148E-3
3.008246614E0,2.993239649E-2,-1.954768784E-2,-6.108652335E-3
3.009464728E0,2.871066704E-2,-1.832595654E-2,-5.497787148E-3
3.012313575E0,2.748893574E-2,-1.710422710E-2,-4.886921961E-3
3.013583498E0,2.932153270E-2,-1.710422710E-2,-7.330383174E-3
3.016462614E0,2.565634064E-2,-1.404990070E-2,-4.886921961E-3
3.017657921E0,2.626720630E-2,-1.404990070E-2,-4.886921961E-3
3.020517498E0,2.443460934E-2,-1.466076635E-2,-4.276056774E-3
3.021801882E0,2.565634064E-2,-1.343903504E-2,-2.443460980E-3
3.024619652E0,2.321287990E-2,-9.773843922E-3,-6.108652335E-3
3.026305190E0,2.260201424E-2,-1.099557430E-2,-4.886921961E-3
3.028641382E0,2.199114859E-2,-9.773843922E-3,-1.221730490E-3
3.029859190E0,2.015855350E-2,-8.552113548E-3,-1.221730490E-3
3.032657075E0,2.199114859E-2,-7.330383174E-3,-4.276056774E-3
3.033978305E0,2.199114859E-2,-7.941247895E-3,0.000000000E0
3.036551728E0,2.138028294E-2,-8.552113548E-3,1.832595794E-3
3.038062536E0,2.260201424E-2,-6.719517522E-3,1.221730490E-3
3.040706074E0,2.260201424E-2,-5.497787148E-3,6.108652451E-4
3.042198844E0,2.138028294E-2,-5.497787148E-3,1.832595794E-3
3.044749651E0,2.076941915E-2,-6.108652335E-3,2.443460980E-3
3.046692998E0,2.076941915E-2,-6.719517522E-3,6.719517522E-3
3.048824305E0,2.199114859E-2,-5.497787148E-3,3.665191587E-3
3.050279036E0,2.076941915E-2,-4.276056774E-3,3.665191587E-3
3.052890036E0,2.138028294E-2,-4.276056774E-3,5.497787148E-3
3.054405536E0,2.260201424E-2,-4.886921961E-3,7.330383174E-3
3.057056536E0,1.832595654E-2,-6.108652335E-3,8.552113548E-3
3.058520113E0,2.260201424E-2,-6.108652335E-3,6.719517522E-3
3.061065921E0,2.260201424E-2,-6.108652335E-3,8.552113548E-3
3.062633498E0,2.076941915E-2,-6.719517522E-3,8.552113548E-3
3.065089228E0,2.015855350E-2,-6.719517522E-3,9.162978269E-3
3.067033613E0,2.015855350E-2,-4.886921961E-3,1.160643995E-2
3.069234113E0,2.138028294E-2,-4.886921961E-3,8.552113548E-3
3.070722267E0,2.076941915E-2,-6.719517522E-3,1.160643995E-2
3.073571575E0,2.015855350E-2,-7.330383174E-3,1.160643995E-2
3.074839728E0,1.954768784E-2,-6.108652335E-3,1.282817032E-2
3.077722190E0,1.954768784E-2,-6.108652335E-3,1.343903504E-2
3.078910767E0,1.893682219E-2,-6.108652335E-3,1.466076635E-2
3.081776690E0,1.954768784E-2,-4.886921961E-3,1.954768784E-2
3.083075844E0,1.832595654E-2,-5.497787148E-3,1.527163107E-2
3.085878844E0,1.954768784E-2,-4.886921961E-3,1.588249579E-2
3.087518344E0,1.832595654E-2,-3.054326167E-3,2.015855350E-2
3.089924036E0,1.954768784E-2,-2.443460980E-3,2.015855350E-2
3.091226921E0,1.771509275E-2,-3.054326167E-3,1.771509275E-2
3.093991421E0,1.649336144E-2,-2.443460980E-3,2.199114859E-2
3.095211921E0,1.588249579E-2,-3.054326167E-3,1.832595654E-2
3.098141998E0,1.710422710E-2,-4.886921961E-3,2.138028294E-2
3.099352190E0,1.466076635E-2,-3.054326167E-3,2.382374369E-2
3.102196421E0,1.343903504E-2,-5.497787148E-3,2.260201424E-2
3.103479882E0,1.282817032E-2,-6.108652335E-3,2.321287990E-2
3.106300575E0,1.099557430E-2,-8.552113548E-3,2.443460934E-2
3.107931344E0,7.941247895E-3,-1.099557430E-2,2.443460934E-2
3.110174036E0,1.160643995E-2,-1.466076635E-2,2.382374369E-2
3.111573036E0,6.719517522E-3,-1.527163107E-2,2.565634064E-2
3.114368536E0,4.886921961E-3,-2.076941915E-2,3.054326214E-2
3.115687805E0,6.719517522E-3,-2.199114859E-2,2.504547499E-2
3.118275305E0,4.276056774E-3,-2.626720630E-2,2.687807009E-2
3.119810844E0,2.443460980E-3,-3.054326214E-2,3.115412779E-2
3.122621498E0,1.832595794E-3,-3.237585723E-2,3.115412779E-2
3.123927228E0,1.221730490E-3,-4.031710699E-2,3.115412779E-2
3.126388190E0,-3.665191587E-3,-4.337143153E-2,3.726277873E-2
3.128364690E0,-2.443460980E-3,-4.581489414E-2,3.176499158E-2
3.130502344E0,-1.221730490E-3,-4.703662544E-2,3.298672289E-2
3.131984228E0,-4.276056774E-3,-5.131268129E-2,3.420845419E-2
3.134552536E0,-4.276056774E-3,-5.131268129E-2,3.665191308E-2
3.136077690E0,-5.497787148E-3,-5.375614017E-2,3.543018550E-2
3.138736036E0,-7.941247895E-3,-5.497787148E-2,3.970624134E-2
3.140175305E0,-6.108652335E-3,-5.558873713E-2,3.909537569E-2
3.142757267E0,-5.497787148E-3,-5.558873713E-2,4.031710699E-2
3.144326651E0,-6.108652335E-3,-5.619960278E-2,4.337143153E-2
3.146813613E0,-5.497787148E-3,-5.619960278E-2,4.581489414E-2
3.148835151E0,-4.276056774E-3,-5.436700583E-2,4.520402849E-2
3.150926728E0,-5.497787148E-3,-5.436700583E-2,5.192354694E-2
3.152451267E0,-6.108652335E-3,-4.886921868E-2,4.886921868E-2
3.155262267E0,-5.497787148E-3,-5.070181563E-2,5.131268129E-2
3.156518190E0,-6.719517522E-3,-4.825835302E-2,5.619960278E-2
3.159412421E0,-3.665191587E-3,-4.581489414E-2,5.742133409E-2
3.160616113E0,-5.497787148E-3,-4.520402849E-2,5.925392732E-2
3.163468075E0,-3.054326167E-3,-4.337143153E-2,6.291911751E-2
3.164941459E0,-4.276056774E-3,-4.337143153E-2,6.352998316E-2
3.167570728E0,-3.665191587E-3,-4.214970022E-2,6.597344577E-2
3.169223997E0,-1.221730490E-3,-3.909537569E-2,7.147123665E-2
3.171616882E0,-6.108652451E-4,-3.787364438E-2,7.024950534E-2
3.172860074E0,-1.832595794E-3,-3.909537569E-2,7.391469181E-2
3.175684767E0,-4.886921961E-3,-3.726277873E-2,7.574728876E-2
3.177010305E0,-1.832595794E-3,-3.787364438E-2,7.635815442E-2
3.179834036E0,-1.221730490E-3,-3.665191308E-2,7.819075137E-2
3.181676844E0,-3.054326167E-3,-3.726277873E-2,7.635815442E-2
3.183844228E0,-4.276056774E-3,-3.604105115E-2,7.696902007E-2
3.185091113E0,-1.832595794E-3,-3.787364438E-2,7.757988572E-2
3.187911113E0,-7.941247895E-3,-3.665191308E-2,7.819075137E-2
3.189790536E0,-5.497787148E-3,-3.665191308E-2,7.757988572E-2
3.191781267E0,-6.719517522E-3,-3.543018550E-2,7.757988572E-2
3.193201921E0,-1.038470957E-2,-3.604105115E-2,7.635815442E-2
3.195984151E0,-1.221730467E-2,-3.420845419E-2,7.880161703E-2
3.197299305E0,-1.221730467E-2,-3.237585723E-2,7.635815442E-2
3.199918190E0,-1.343903504E-2,-3.420845419E-2,7.757988572E-2
3.201392767E0,-1.404990070E-2,-3.176499158E-2,7.452555746E-2
3.204007882E0,-1.343903504E-2,-2.871066704E-2,7.513642311E-2
3.205808382E0,-1.771509275E-2,-2.809980139E-2,7.269296050E-2
3.208063613E0,-1.893682219E-2,-2.687807009E-2,7.269296050E-2
3.209990959E0,-2.199114859E-2,-2.504547499E-2,7.513642311E-2
3.212182574E0,-2.138028294E-2,-2.504547499E-2,7.208210230E-2
3.213595651E0,-2.382374369E-2,-2.076941915E-2,7.086037099E-2
3.216180574E0,-2.199114859E-2,-1.832595654E-2,6.963863969E-2
3.217702036E0,-2.260201424E-2,-1.771509275E-2,6.841690838E-2
3.220399190E0,-2.565634064E-2,-1.710422710E-2,6.902777404E-2
3.221844767E0,-2.748893574E-2,-1.343903504E-2,6.780604273E-2
3.224437536E0,-2.626720630E-2,-9.773843922E-3,6.475171447E-2
3.226069805E0,-2.809980139E-2,-1.099557430E-2,6.597344577E-2
3.228424036E0,-2.871066704E-2,-1.038470957E-2,6.719517708E-2
3.230460497E0,-2.871066704E-2,-7.330383174E-3,6.230825558E-2
3.232604651E0,-2.809980139E-2,-7.941247895E-3,6.291911751E-2
3.234065805E0,-2.932153270E-2,-6.108652335E-3,6.597344577E-2
3.236885151E0,-3.054326214E-2,-3.665191587E-3,6.108652428E-2
3.238182882E0,-2.871066704E-2,-3.054326167E-3,6.047565863E-2
3.241036728E0,-2.993239649E-2,-3.665191587E-3,6.291911751E-2
3.242272074E0,-2.748893574E-2,1.221730490E-3,5.681046844E-2
3.245092305E0,-2.871066704E-2,0.000000000E0,5.803219974E-2
3.246419690E0,-2.932153270E-2,2.443460980E-3,5.986479297E-2
3.249194959E0,-2.809980139E-2,3.665191587E-3,5.803219974E-2
3.250895651E0,-2.626720630E-2,4.886921961E-3,5.803219974E-2
3.253242074E0,-2.626720630E-2,6.108652335E-3,5.742133409E-2
3.254486497E0,-2.504547499E-2,6.108652335E-3,5.314527452E-2
3.257310613E0,-2.565634064E-2,7.330383174E-3,5.558873713E-2
3.258629074E0,-2.260201424E-2,6.108652335E-3,5.558873713E-2
3.261462074E0,-2.443460934E-2,4.886921961E-3,5.681046844E-2
3.262710536E0,-1.954768784E-2,7.330383174E-3,5.497787148E-2
3.265517651E0,-2.015855350E-2,6.719517522E-3,5.436700583E-2
3.267022420E0,-2.015855350E-2,6.719517522E-3,5.497787148E-2
3.269621190E0,-1.771509275E-2,7.330383174E-3,5.375614017E-2
3.271248190E0,-1.954768784E-2,7.941247895E-3,5.253441259E-2
3.273535305E0,-1.649336144E-2,8.552113548E-3,5.253441259E-2
3.274989305E0,-1.466076635E-2,1.038470957E-2,5.497787148E-2
3.277736574E0,-1.343903504E-2,1.038470957E-2,5.253441259E-2
3.279030420E0,-1.282817032E-2,1.221730467E-2,5.131268129E-2
3.281675805E0,-9.162978269E-3,1.343903504E-2,5.253441259E-2
3.283414574E0,-1.038470957E-2,1.588249579E-2,5.314527452E-2
3.285790305E0,-7.941247895E-3,1.771509275E-2,5.558873713E-2
3.287487459E0,-3.665191587E-3,2.260201424E-2,5.070181563E-2
3.289914920E0,-4.276056774E-3,2.076941915E-2,5.253441259E-2
3.291924997E0,0.000000000E0,2.382374369E-2,5.253441259E-2
3.293926844E0,4.276056774E-3,2.809980139E-2,5.131268129E-2
3.295483651E0,3.665191587E-3,2.932153270E-2,5.131268129E-2
3.297946574E0,6.719517522E-3,3.115412779E-2,4.886921868E-2
3.299663113E0,9.773843922E-3,3.176499158E-2,4.886921868E-2
3.302129228E0,1.527163107E-2,3.665191308E-2,4.948008433E-2
3.303574690E0,1.710422710E-2,3.543018550E-2,5.070181563E-2
3.306212113E0,2.015855350E-2,3.604105115E-2,4.520402849E-2
3.307707805E0,2.565634064E-2,3.665191308E-2,4.886921868E-2
3.310158382E0,2.809980139E-2,3.787364438E-2,5.070181563E-2
3.312163767E0,2.809980139E-2,3.970624134E-2,4.825835302E-2
3.314303151E0,3.604105115E-2,4.214970022E-2,4.581489414E-2
3.315731074E0,3.604105115E-2,4.276056588E-2,4.642575979E-2
3.318595651E0,3.909537569E-2,4.520402849E-2,4.581489414E-2
3.319850113E0,4.642575979E-2,4.581489414E-2,4.581489414E-2
3.322746343E0,4.520402849E-2,4.520402849E-2,4.642575979E-2
3.323992690E0,4.948008433E-2,4.581489414E-2,4.337143153E-2
3.326800959E0,4.948008433E-2,4.398229718E-2,4.459316283E-2
3.328154267E0,5.131268129E-2,4.337143153E-2,4.642575979E-2
3.330904382E0,5.497787148E-2,4.398229718E-2,4.459316283E-2
3.332801767E0,5.375614017E-2,4.214970022E-2,4.520402849E-2
3.334949420E0,5.986479297E-2,4.276056588E-2,4.581489414E-2
3.336224536E0,6.047565863E-2,3.848451003E-2,4.398229718E-2
3.339017843E0,6.230825558E-2,3.604105115E-2,4.398229718E-2
3.340385305E0,6.475171447E-2,3.665191308E-2,4.276056588E-2
3.343168035E0,6.536258012E-2,3.481931984E-2,4.581489414E-2
3.344471420E0,6.658431143E-2,3.115412779E-2,4.337143153E-2
3.347223958E0,6.658431143E-2,2.993239649E-2,4.398229718E-2
3.348563997E0,6.963863969E-2,2.626720630E-2,4.398229718E-2
3.351341689E0,7.086037099E-2,2.321287990E-2,4.092797264E-2
3.353204959E0,7.330382615E-2,2.076941915E-2,4.337143153E-2
3.355298382E0,7.330382615E-2,1.954768784E-2,4.459316283E-2
3.356696305E0,7.452555746E-2,1.404990070E-2,4.092797264E-2
3.359440613E0,7.574728876E-2,1.282817032E-2,4.214970022E-2
3.360773959E0,7.330382615E-2,1.221730467E-2,4.276056588E-2
3.363400497E0,7.147123665E-2,6.719517522E-3,4.031710699E-2
3.364970305E0,7.330382615E-2,1.221730490E-3,4.031710699E-2
3.367421343E0,7.391469181E-2,1.221730490E-3,4.031710699E-2
3.369003459E0,7.452555746E-2,0.000000000E0,4.092797264E-2
3.371463190E0,7.330382615E-2,-6.108652335E-3,3.909537569E-2
3.373565228E0,7.330382615E-2,-6.719517522E-3,3.726277873E-2
3.375631305E0,7.147123665E-2,-7.941247895E-3,3.726277873E-2
3.377377459E0,7.208210230E-2,-9.162978269E-3,3.787364438E-2
3.379766805E0,7.269296050E-2,-1.038470957E-2,3.726277873E-2
3.381246151E0,7.024950534E-2,-1.099557430E-2,3.543018550E-2
3.384019113E0,6.780604273E-2,-1.343903504E-2,3.543018550E-2
3.385273459E0,6.719517708E-2,-1.343903504E-2,3.543018550E-2
3.387920613E0,6.597344577E-2,-1.282817032E-2,3.543018550E-2
3.389483920E0,6.658431143E-2,-1.282817032E-2,2.993239649E-2
3.392111074E0,6.169738993E-2,-1.404990070E-2,3.237585723E-2
3.393885497E0,6.169738993E-2,-1.282817032E-2,3.237585723E-2
3.396023651E0,6.291911751E-2,-1.221730467E-2,3.054326214E-2
3.397551690E0,5.681046844E-2,-1.038470957E-2,3.359758854E-2
3.400301304E0,5.803219974E-2,-9.773843922E-3,3.054326214E-2
3.401639920E0,5.619960278E-2,-8.552113548E-3,2.932153270E-2
3.404453112E0,5.436700583E-2,-6.719517522E-3,2.809980139E-2
3.405760420E0,5.253441259E-2,-4.886921961E-3,2.871066704E-2
3.408508804E0,5.131268129E-2,-1.832595794E-3,2.809980139E-2
3.409989267E0,4.825835302E-2,0.000000000E0,2.809980139E-2
3.412612727E0,4.459316283E-2,1.221730490E-3,2.748893574E-2
3.414338228E0,4.459316283E-2,3.054326167E-3,2.565634064E-2
3.416660074E0,4.153883830E-2,5.497787148E-3,2.626720630E-2
3.418086074E0,4.276056588E-2,7.330383174E-3,2.443460934E-2
3.420727458E0,4.031710699E-2,7.330383174E-3,2.687807009E-2
3.422053690E0,3.787364438E-2,9.773843922E-3,2.504547499E-2
3.424878689E0,4.031710699E-2,1.221730467E-2,2.260201424E-2
3.426721382E0,3.665191308E-2,1.282817032E-2,2.443460934E-2
3.428891881E0,3.543018550E-2,1.282817032E-2,2.321287990E-2
3.430214113E0,3.237585723E-2,1.527163107E-2,2.382374369E-2
3.432960766E0,3.420845419E-2,1.588249579E-2,2.443460934E-2
3.434744613E0,3.237585723E-2,1.710422710E-2,2.138028294E-2
3.437014458E0,2.871066704E-2,1.588249579E-2,2.443460934E-2
3.438409767E0,2.687807009E-2,1.404990070E-2,2.321287990E-2
3.441058228E0,2.687807009E-2,1.404990070E-2,2.138028294E-2
3.442353997E0,2.748893574E-2,1.221730467E-2,2.138028294E-2
3.444957690E0,2.260201424E-2,1.099557430E-2,1.954768784E-2
3.446477959E0,2.260201424E-2,1.282817032E-2,1.832595654E-2
3.449056651E0,2.260201424E-2,8.552113548E-3,1.771509275E-2
3.450605728E0,2.076941915E-2,9.162978269E-3,1.710422710E-2
3.453178997E0,1.954768784E-2,7.941247895E-3,1.649336144E-2
3.455082651E0,1.954768784E-2,7.941247895E-3,1.466076635E-2
3.457203190E0,1.832595654E-2,4.276056774E-3,1.282817032E-2
3.458990151E0,1.710422710E-2,6.719517522E-3,1.404990070E-2
3.461290420E0,1.343903504E-2,5.497787148E-3,1.221730467E-2
3.462949151E0,1.466076635E-2,3.665191587E-3,1.160643995E-2
3.465465959E0,1.343903504E-2,3.665191587E-3,1.343903504E-2
3.467041997E0,1.343903504E-2,5.497787148E-3,9.162978269E-3
3.469466574E0,1.038470957E-2,4.886921961E-3,9.162978269E-3
3.471057997E0,1.099557430E-2,3.665191587E-3,6.719517522E-3
3.473488766E0,7.941247895E-3,1.832595794E-3,7.330383174E-3
3.475478113E0,7.330383174E-3,4.276056774E-3,7.941247895E-3
3.477620651E0,7.330383174E-3,3.665191587E-3,5.497787148E-3
3.479196613E0,5.497787148E-3,3.665191587E-3,7.330383174E-3
3.481943266E0,3.665191587E-3,6.108652335E-3,3.665191587E-3
3.483442151E0,4.276056774E-3,5.497787148E-3,6.108652335E-3
3.486094804E0,4.276056774E-3,7.330383174E-3,4.886921961E-3
3.487340613E0,2.443460980E-3,7.941247895E-3,4.276056774E-3
3.490151035E0,4.276056774E-3,9.773843922E-3,3.665191587E-3
3.491779536E0,3.054326167E-3,1.038470957E-2,4.276056774E-3
3.494254266E0,6.108652451E-4,1.038470957E-2,4.276056774E-3
3.495950497E0,6.108652451E-4,1.038470957E-2,3.054326167E-3
3.498301958E0,2.443460980E-3,1.160643995E-2,3.054326167E-3
3.499537882E0,1.832595794E-3,1.099557430E-2,3.054326167E-3
3.502370073E0,1.832595794E-3,1.527163107E-2,1.221730490E-3
3.503644574E0,0.000000000E0,1.404990070E-2,2.443460980E-3
3.506520189E0,2.443460980E-3,1.343903504E-2,5.497787148E-3
3.507828113E0,1.221730490E-3,1.466076635E-2,2.443460980E-3
3.510575073E0,-3.054326167E-3,1.466076635E-2,6.719517522E-3
3.511903536E0,-1.832595794E-3,1.588249579E-2,5.497787148E-3
3.514677573E0,-6.108652451E-4,1.954768784E-2,3.665191587E-3
3.516441497E0,-6.108652451E-4,1.954768784E-2,4.886921961E-3
3.518631690E0,1.832595794E-3,1.954768784E-2,2.443460980E-3
3.520106920E0,-1.221730490E-3,1.954768784E-2,3.054326167E-3
3.522794151E0,-6.108652451E-4,1.954768784E-2,4.886921961E-3
3.524097690E0,6.108652451E-4,2.321287990E-2,6.108652335E-3
3.526722574E0,-1.832595794E-3,2.382374369E-2,4.276056774E-3
3.528242305E0,-1.832595794E-3,2.260201424E-2,7.330383174E-3
3.530862459E0,-6.108652451E-4,2.321287990E-2,5.497787148E-3
3.532641882E0,-1.832595794E-3,2.443460934E-2,7.330383174E-3
3.534937920E0,-3.054326167E-3,2.504547499E-2,7.330383174E-3
3.536847959E0,-2.443460980E-3,2.565634064E-2,6.108652335E-3
3.538998113E0,-1.221730490E-3,2.626720630E-2,6.108652335E-3
3.540396882E0,-3.054326167E-3,2.504547499E-2,6.719517522E-3
3.543019805E0,-4.276056774E-3,2.626720630E-2,6.719517522E-3
3.544576959E0,-3.054326167E-3,2.626720630E-2,8.552113548E-3
3.547371112E0,0.000000000E0,2.504547499E-2,5.497787148E-3
3.548767074E0,-1.221730490E-3,2.809980139E-2,4.886921961E-3
3.551326843E0,1.832595794E-3,2.748893574E-2,8.552113548E-3
3.552783920E0,1.221730490E-3,2.932153270E-2,6.108652335E-3
3.555319382E0,6.108652451E-4,2.871066704E-2,1.099557430E-2
3.557288190E0,1.221730490E-3,3.054326214E-2,7.941247895E-3
3.559392997E0,-1.832595794E-3,3.176499158E-2,1.343903504E-2
3.560840651E0,6.108652451E-4,3.237585723E-2,1.099557430E-2
3.563649919E0,2.443460980E-3,3.543018550E-2,8.552113548E-3
3.564919497E0,1.221730490E-3,3.604105115E-2,1.282817032E-2
3.567800611E0,1.832595794E-3,3.665191308E-2,1.160643995E-2
3.569008574E0,3.054326167E-3,3.787364438E-2,1.099557430E-2
3.571857342E0,4.276056774E-3,3.726277873E-2,1.221730467E-2
3.573249651E0,1.221730490E-3,3.726277873E-2,1.038470957E-2
3.575961881E0,3.054326167E-3,3.543018550E-2,7.941247895E-3
3.577630189E0,3.054326167E-3,3.359758854E-2,5.497787148E-3
3.580008458E0,1.832595794E-3,3.359758854E-2,8.552113548E-3
3.581230074E0,6.108652451E-4,2.932153270E-2,6.719517522E-3
3.584077035E0,6.108652451E-4,2.871066704E-2,7.330383174E-3
3.585381574E0,0.000000000E0,2.687807009E-2,6.108652335E-3
3.588227573E0,0.000000000E0,2.504547499E-2,8.552113548E-3
3.589463113E0,-2.443460980E-3,2.199114859E-2,7.330383174E-3
3.592284111E0,1.832595794E-3,1.649336144E-2,6.719517522E-3
3.593606113E0,-4.276056774E-3,1.710422710E-2,8.552113548E-3
3.596387342E0,-2.443460980E-3,1.466076635E-2,7.941247895E-3
3.598139036E0,-2.443460980E-3,1.221730467E-2,5.497787148E-3
3.600287266E0,-1.832595794E-3,1.221730467E-2,7.330383174E-3
3.601664497E0,-4.886921961E-3,6.108652335E-3,9.162978269E-3
3.604465536E0,-4.276056774E-3,6.108652335E-3,6.108652335E-3
3.605786843E0,-4.886921961E-3,5.497787148E-3,9.162978269E-3
3.608417266E0,-6.108652335E-3,3.054326167E-3,6.719517522E-3
3.609879266E0,-6.108652335E-3,0.000000000E0,5.497787148E-3
3.612456805E0,-6.108652335E-3,-2.443460980E-3,7.941247895E-3
3.614052151E0,-6.719517522E-3,-4.886921961E-3,7.941247895E-3
3.616637459E0,-7.941247895E-3,-7.330383174E-3,4.276056774E-3
3.618654651E0,-5.497787148E-3,-7.941247895E-3,3.665191587E-3
3.620681689E0,-8.552113548E-3,-1.099557430E-2,2.443460980E-3
3.622155036E0,-9.162978269E-3,-1.343903504E-2,0.000000000E0
3.624693728E0,-1.099557430E-2,-1.404990070E-2,1.832595794E-3
3.626392882E0,-7.941247895E-3,-1.649336144E-2,-6.108652451E-4
3.628862959E0,-1.038470957E-2,-1.832595654E-2,-1.221730490E-3
3.630387074E0,-1.099557430E-2,-2.015855350E-2,6.108652451E-4
3.632919536E0,-1.099557430E-2,-2.260201424E-2,0.000000000E0
3.634485305E0,-1.282817032E-2,-2.382374369E-2,-2.443460980E-3
3.637060382E0,-1.221730467E-2,-2.748893574E-2,1.832595794E-3
3.639027805E0,-1.466076635E-2,-2.932153270E-2,1.832595794E-3
3.641092266E0,-1.466076635E-2,-3.054326214E-2,-1.832595794E-3
3.642520074E0,-1.588249579E-2,-3.176499158E-2,5.497787148E-3
3.645367342E0,-1.466076635E-2,-3.237585723E-2,2.443460980E-3
3.646609151E0,-1.710422710E-2,-3.420845419E-2,-1.221730490E-3
3.649518996E0,-1.527163107E-2,-3.665191308E-2,-1.832595794E-3
3.650775189E0,-1.527163107E-2,-3.726277873E-2,0.000000000E0
3.653575611E0,-1.649336144E-2,-3.665191308E-2,-1.221730490E-3
3.654876382E0,-1.832595654E-2,-3.970624134E-2,-6.108652451E-4
3.657680342E0,-1.832595654E-2,-4.031710699E-2,-6.108652451E-4
3.659321382E0,-2.076941915E-2,-4.092797264E-2,-1.221730490E-3
3.661726073E0,-1.954768784E-2,-4.276056588E-2,0.000000000E0
3.663043651E0,-1.710422710E-2,-4.337143153E-2,-3.054326167E-3
3.665795688E0,-2.076941915E-2,-4.459316283E-2,-4.886921961E-3
3.667100997E0,-2.199114859E-2,-4.520402849E-2,-2.443460980E-3
3.669946265E0,-2.138028294E-2,-4.642575979E-2,-7.941247895E-3
3.671914459E0,-2.382374369E-2,-4.764748737E-2,-5.497787148E-3
3.673956611E0,-2.443460934E-2,-4.886921868E-2,-5.497787148E-3
3.675377689E0,-2.626720630E-2,-5.009094998E-2,-5.497787148E-3
3.678024150E0,-2.809980139E-2,-4.948008433E-2,-8.552113548E-3
3.679820843E0,-2.871066704E-2,-5.009094998E-2,-9.162978269E-3
3.681909305E0,-3.237585723E-2,-5.314527452E-2,-1.099557430E-2
3.683286305E0,-3.298672289E-2,-5.192354694E-2,-1.160643995E-2
3.686139343E0,-3.420845419E-2,-5.314527452E-2,-9.773843922E-3
3.687533266E0,-3.726277873E-2,-5.497787148E-2,-9.773843922E-3
3.689980574E0,-3.604105115E-2,-5.436700583E-2,-1.099557430E-2
3.691577766E0,-3.909537569E-2,-5.742133409E-2,-1.099557430E-2
3.694118766E0,-4.153883830E-2,-5.864306539E-2,-1.466076635E-2
3.695667074E0,-4.153883830E-2,-5.864306539E-2,-1.282817032E-2
3.698149997E0,-4.520402849E-2,-6.047565863E-2,-1.343903504E-2
3.700209997E0,-4.764748737E-2,-6.414084882E-2,-1.343903504E-2
3.702268305E0,-5.009094998E-2,-6.658431143E-2,-1.404990070E-2
3.703746612E0,-5.009094998E-2,-6.780604273E-2,-1.404990070E-2
3.706316766E0,-5.070181563E-2,-6.902777404E-2,-1.710422710E-2
3.707860959E0,-5.436700583E-2,-7.086037099E-2,-1.649336144E-2
3.710556036E0,-5.681046844E-2,-7.269296050E-2,-1.404990070E-2
3.711969266E0,-5.681046844E-2,-7.574728876E-2,-1.832595654E-2
3.714555920E0,-5.742133409E-2,-7.696902007E-2,-1.649336144E-2
3.716101112E0,-6.291911751E-2,-8.307767659E-2,-1.832595654E-2
3.718532805E0,-6.475171447E-2,-8.429940045E-2,-2.199114859E-2
3.720514689E0,-6.658431143E-2,-8.857546002E-2,-1.893682219E-2
3.722687959E0,-6.841690838E-2,-8.979719132E-2,-1.771509275E-2
3.724147805E0,-7.024950534E-2,-9.162978828E-2,-2.076941915E-2
3.726995457E0,-7.391469181E-2,-9.590584040E-2,-2.199114859E-2
3.728274382E0,-7.574728876E-2,-9.590584040E-2,-2.321287990E-2
3.731146649E0,-7.819075137E-2,-9.834930301E-2,-2.138028294E-2
3.732378343E0,-8.002334833E-2,-9.957103431E-2,-2.626720630E-2
3.735202765E0,-8.185594529E-2,-9.896016866E-2,-2.321287990E-2
3.736511497E0,-8.429940045E-2,-1.038470939E-1,-2.321287990E-2
3.739306342E0,-8.552113175E-2,-1.038470939E-1,-2.565634064E-2
3.740963920E0,-8.918632567E-2,-1.044579595E-1,-2.504547499E-2
3.743353111E0,-8.979719132E-2,-1.044579595E-1,-2.748893574E-2
3.744594305E0,-9.285151958E-2,-1.050688252E-1,-2.382374369E-2
3.747420649E0,-9.162978828E-2,-1.050688252E-1,-2.748893574E-2
3.748698266E0,-9.468411654E-2,-1.044579595E-1,-2.748893574E-2
3.751571418E0,-9.896016866E-2,-1.056796908E-1,-2.932153270E-2
3.752763920E0,-9.957103431E-2,-1.062905490E-1,-2.871066704E-2
3.755627303E0,-9.834930301E-2,-1.081231460E-1,-3.054326214E-2
3.756927805E0,-1.020144969E-1,-1.081231460E-1,-2.809980139E-2
3.759744572E0,-1.032362282E-1,-1.075122803E-1,-3.176499158E-2
3.761395343E0,-1.044579595E-1,-1.081231460E-1,-3.237585723E-2
3.763597728E0,-1.056796908E-1,-1.069014147E-1,-3.237585723E-2
3.765017112E0,-1.044579595E-1,-1.069014147E-1,-3.176499158E-2
3.767827112E0,-1.069014147E-1,-1.069014147E-1,-3.115412779E-2
3.769119920E0,-1.075122803E-1,-1.081231460E-1,-3.176499158E-2
3.771723805E0,-1.075122803E-1,-1.081231460E-1,-3.665191308E-2
3.773319112E0,-1.075122803E-1,-1.087340117E-1,-3.543018550E-2
3.775853612E0,-1.062905490E-1,-1.093448773E-1,-3.481931984E-2
3.777398651E0,-1.081231460E-1,-1.087340117E-1,-3.604105115E-2
3.779875382E0,-1.081231460E-1,-1.099557430E-1,-3.420845419E-2
3.781914151E0,-1.056796908E-1,-1.075122803E-1,-3.359758854E-2
3.784026266E0,-1.038470939E-1,-1.087340117E-1,-3.298672289E-2
3.785578574E0,-1.056796908E-1,-1.117883399E-1,-3.237585723E-2
3.788030343E0,-1.056796908E-1,-1.111774743E-1,-3.115412779E-2
3.789546882E0,-1.044579595E-1,-1.099557430E-1,-2.993239649E-2
3.792300535E0,-1.050688252E-1,-1.123992056E-1,-3.298672289E-2
3.793807189E0,-1.038470939E-1,-1.136209369E-1,-2.932153270E-2
3.796339382E0,-1.038470939E-1,-1.123992056E-1,-2.993239649E-2
3.797882266E0,-1.038470939E-1,-1.148426682E-1,-2.871066704E-2
3.800312382E0,-1.056796908E-1,-1.136209369E-1,-2.626720630E-2
3.802242843E0,-1.062905490E-1,-1.160643995E-1,-2.565634064E-2
3.804363228E0,-1.044579595E-1,-1.154535338E-1,-2.626720630E-2
3.806062228E0,-1.044579595E-1,-1.166752651E-1,-2.260201424E-2
3.808696880E0,-1.081231460E-1,-1.185078546E-1,-2.382374369E-2
3.810162074E0,-1.081231460E-1,-1.178969890E-1,-2.443460934E-2
3.812847034E0,-1.093448773E-1,-1.197295859E-1,-2.015855350E-2
3.814203074E0,-1.099557430E-1,-1.209513173E-1,-2.443460934E-2
3.816902226E0,-1.099557430E-1,-1.221730486E-1,-2.748893574E-2
3.818324035E0,-1.111774743E-1,-1.252273768E-1,-1.954768784E-2
3.821005149E0,-1.166752651E-1,-1.246165112E-1,-1.954768784E-2
3.822696497E0,-1.154535338E-1,-1.240056455E-1,-2.138028294E-2
3.825050803E0,-1.142318025E-1,-1.227839142E-1,-2.199114859E-2
3.826311766E0,-1.166752651E-1,-1.240056455E-1,-2.015855350E-2
3.829118534E0,-1.191187203E-1,-1.240056455E-1,-2.382374369E-2
3.830391459E0,-1.178969890E-1,-1.246165112E-1,-2.015855350E-2
3.833267918E0,-1.221730486E-1,-1.246165112E-1,-2.076941915E-2
3.834551382E0,-1.221730486E-1,-1.233947799E-1,-1.954768784E-2
3.837323341E0,-1.227839142E-1,-1.203404516E-1,-1.893682219E-2
3.838642305E0,-1.240056455E-1,-1.227839142E-1,-2.076941915E-2
3.841426457E0,-1.258382350E-1,-1.191187203E-1,-2.076941915E-2
3.843233574E0,-1.252273768E-1,-1.185078546E-1,-2.076941915E-2
3.845355459E0,-1.282816976E-1,-1.197295859E-1,-2.260201424E-2
3.846700959E0,-1.282816976E-1,-1.148426682E-1,-2.260201424E-2
3.849517035E0,-1.307251602E-1,-1.148426682E-1,-2.138028294E-2
3.850833382E0,-1.295034289E-1,-1.123992056E-1,-2.565634064E-2
3.853435420E0,-1.313360333E-1,-1.117883399E-1,-2.321287990E-2
3.854957151E0,-1.325577646E-1,-1.087340117E-1,-2.443460934E-2
3.857523382E0,-1.337794960E-1,-1.087340117E-1,-2.565634064E-2
3.859076920E0,-1.325577646E-1,-1.020144969E-1,-2.871066704E-2
3.861542574E0,-1.331686229E-1,-1.014036313E-1,-2.382374369E-2
3.863531843E0,-1.350012124E-1,-1.020144969E-1,-2.932153270E-2
3.865676189E0,-1.356120855E-1,-9.834930301E-2,-2.504547499E-2
3.867358728E0,-1.374446750E-1,-9.468411654E-2,-2.382374369E-2
3.869755574E0,-1.368338168E-1,-9.529497474E-2,-2.626720630E-2
3.871390228E0,-1.362229437E-1,-9.162978828E-2,-2.748893574E-2
3.873977651E0,-1.374446750E-1,-9.224065393E-2,-2.443460934E-2
3.875431074E0,-1.331686229E-1,-9.040805697E-2,-2.748893574E-2
3.878021189E0,-1.362229437E-1,-8.796459436E-2,-2.504547499E-2
3.879576035E0,-1.343903542E-1,-8.552113175E-2,-2.199114859E-2
3.882002997E0,-1.325577646E-1,-8.491026610E-2,-2.687807009E-2
3.883962459E0,-1.319468915E-1,-8.552113175E-2,-2.199114859E-2
3.886102382E0,-1.325577646E-1,-8.368854225E-2,-2.015855350E-2
3.887623497E0,-1.307251602E-1,-8.491026610E-2,-2.260201424E-2
3.890404918E0,-1.313360333E-1,-8.429940045E-2,-1.893682219E-2
3.891764343E0,-1.264491081E-1,-8.368854225E-2,-1.893682219E-2
3.894556264E0,-1.264491081E-1,-8.246681094E-2,-2.138028294E-2
3.895768497E0,-1.282816976E-1,-8.674286306E-2,-1.771509275E-2
3.898611110E0,-1.233947799E-1,-8.552113175E-2,-1.527163107E-2
3.899936382E0,-1.215621829E-1,-8.429940045E-2,-1.771509275E-2
3.902715303E0,-1.240056455E-1,-8.613199741E-2,-1.343903504E-2
3.904366728E0,-1.264491081E-1,-8.674286306E-2,-1.527163107E-2
3.906760495E0,-1.227839142E-1,-8.796459436E-2,-1.466076635E-2
3.908004689E0,-1.215621829E-1,-8.735372871E-2,-1.404990070E-2
3.910829802E0,-1.197295859E-1,-8.613199741E-2,-1.282817032E-2
3.912063997E0,-1.215621829E-1,-8.674286306E-2,-1.343903504E-2
3.914981341E0,-1.172861308E-1,-8.491026610E-2,-1.282817032E-2
3.916952689E0,-1.160643995E-1,-8.674286306E-2,-1.282817032E-2
3.918992533E0,-1.160643995E-1,-8.613199741E-2,-1.588249579E-2
3.920267651E0,-1.154535338E-1,-8.552113175E-2,-1.221730467E-2
3.923060649E0,-1.166752651E-1,-8.552113175E-2,-1.221730467E-2
3.924930228E0,-1.123992056E-1,-8.613199741E-2,-1.527163107E-2
3.926996843E0,-1.136209369E-1,-8.429940045E-2,-9.773843922E-3
3.928416689E0,-1.111774743E-1,-8.491026610E-2,-1.221730467E-2
3.931184379E0,-1.087340117E-1,-8.368854225E-2,-1.160643995E-2
3.932504074E0,-1.093448773E-1,-8.185594529E-2,-1.099557430E-2
3.935077689E0,-1.087340117E-1,-8.124507964E-2,-1.099557430E-2
3.936583997E0,-1.093448773E-1,-8.124507964E-2,-1.038470957E-2
3.939331382E0,-1.062905490E-1,-8.063421398E-2,-8.552113548E-3
3.940806958E0,-1.038470939E-1,-7.696902007E-2,-1.160643995E-2
3.943251074E0,-1.056796908E-1,-7.452555746E-2,-1.038470957E-2
3.945204574E0,-1.050688252E-1,-7.574728876E-2,-6.108652335E-3
3.947308651E0,-1.050688252E-1,-7.330382615E-2,-8.552113548E-3
3.948798228E0,-1.007927656E-1,-7.024950534E-2,-4.886921961E-3
3.951403497E0,-9.834930301E-2,-6.475171447E-2,-4.276056774E-3
3.952910035E0,-1.007927656E-1,-6.536258012E-2,-4.886921961E-3
3.955659882E0,-9.712757170E-2,-6.414084882E-2,-4.886921961E-3
3.956996805E0,-9.590584040E-2,-6.047565863E-2,-3.665191587E-3
3.959602458E0,-9.468411654E-2,-6.108652428E-2,-4.276056774E-3
3.961139151E0,-9.162978828E-2,-5.925392732E-2,-5.497787148E-3
3.963552997E0,-9.224065393E-2,-5.803219974E-2,-1.832595794E-3
3.965537843E0,-9.101892263E-2,-5.925392732E-2,-4.886921961E-3
3.967739497E0,-8.979719132E-2,-5.803219974E-2,-3.054326167E-3
3.969214074E0,-9.101892263E-2,-5.925392732E-2,-2.443460980E-3
3.972041110E0,-9.101892263E-2,-6.047565863E-2,-5.497787148E-3
3.973321228E0,-9.285151958E-2,-6.169738993E-2,-7.330383174E-3
3.976191764E0,-9.285151958E-2,-6.414084882E-2,-4.886921961E-3
3.977410651E0,-9.346238524E-2,-6.597344577E-2,-6.719517522E-3
3.980246456E0,-9.468411654E-2,-6.780604273E-2,-1.099557430E-2
3.981732189E0,-9.896016866E-2,-7.024950534E-2,-6.719517522E-3
3.984349841E0,-9.712757170E-2,-7.147123665E-2,-1.160643995E-2
3.986021189E0,-1.001819000E-1,-7.269296050E-2,-1.404990070E-2
3.988396802E0,-1.001819000E-1,-7.574728876E-2,-1.404990070E-2
3.989687266E0,-1.026253626E-1,-8.002334833E-2,-1.527163107E-2
3.992464879E0,-1.007927656E-1,-8.124507964E-2,-1.649336144E-2
3.993763074E0,-1.062905490E-1,-8.246681094E-2,-1.527163107E-2
3.996615802E0,-1.032362282E-1,-8.185594529E-2,-1.893682219E-2
3.997871382E0,-1.032362282E-1,-8.246681094E-2,-1.710422710E-2
4.000672071E0,-1.038470939E-1,-8.185594529E-2,-1.710422710E-2
4.001999574E0,-1.032362282E-1,-8.246681094E-2,-2.015855350E-2
4.004775879E0,-1.026253626E-1,-8.368854225E-2,-1.649336144E-2
4.006525997E0,-1.014036313E-1,-8.429940045E-2,-1.588249579E-2
4.008686074E0,-1.032362282E-1,-8.246681094E-2,-1.771509275E-2
4.010102843E0,-9.957103431E-2,-8.246681094E-2,-1.771509275E-2
4.012894417E0,-1.001819000E-1,-8.063421398E-2,-1.649336144E-2
4.014220112E0,-9.957103431E-2,-8.246681094E-2,-1.771509275E-2
4.016840766E0,-9.468411654E-2,-8.002334833E-2,-1.649336144E-2
4.018313728E0,-9.529497474E-2,-7.880161703E-2,-1.527163107E-2
4.020908728E0,-9.101892263E-2,-8.063421398E-2,-1.710422710E-2
4.022488728E0,-8.979719132E-2,-7.757988572E-2,-1.527163107E-2
4.025005381E0,-8.674286306E-2,-7.696902007E-2,-1.649336144E-2
4.026976843E0,-8.307767659E-2,-7.941248268E-2,-1.588249579E-2
4.029065766E0,-8.063421398E-2,-7.696902007E-2,-1.466076635E-2
4.030520535E0,-7.819075137E-2,-7.696902007E-2,-1.771509275E-2
4.033315802E0,-7.941248268E-2,-7.513642311E-2,-1.710422710E-2
4.034641074E0,-7.452555746E-2,-7.574728876E-2,-1.710422710E-2
4.037267997E0,-7.452555746E-2,-7.208210230E-2,-1.954768784E-2
