"Time (s)","Gyroscope x (rad/s)","Gyroscope y (rad/s)","Gyroscope z (rad/s)"
1.496920300E-2,2.272418737E-1,1.557706445E-1,-2.687807009E-2
1.696962600E-2,2.321287990E-1,1.563815027E-1,-2.443460934E-2
1.903904900E-2,2.406809032E-1,1.539380401E-1,-2.076941915E-2
2.107489500E-2,2.449569702E-1,1.496619880E-1,-1.527163107E-2
2.314458800E-2,2.455678284E-1,1.478293836E-1,-1.527163107E-2
2.518262600E-2,2.486221492E-1,1.398881376E-1,-1.221730467E-2
2.725224200E-2,2.528982162E-1,1.313360333E-1,-8.552113548E-3
2.928731900E-2,2.516764700E-1,1.270599663E-1,-4.886921961E-3
3.135785700E-2,2.577851415E-1,1.185078546E-1,-6.719517522E-3
3.343566500E-2,2.559525371E-1,1.099557430E-1,-6.108652451E-4
3.546251100E-2,2.541199327E-1,1.056796908E-1,1.221730490E-3
3.749685700E-2,2.553416789E-1,9.651670605E-2,-1.832595794E-3
3.956662600E-2,2.535090744E-1,8.857546002E-2,2.443460980E-3
4.160143400E-2,2.528982162E-1,8.429940045E-2,4.276056774E-3
4.371820300E-2,2.510656118E-1,7.880161703E-2,-6.108652451E-4
4.570678000E-2,2.474004179E-1,6.902777404E-2,7.330383174E-3
4.777658800E-2,2.437352389E-1,6.291911751E-2,1.038470957E-2
4.981228000E-2,2.443460971E-1,5.986479297E-2,5.497787148E-3
5.188193400E-2,2.382374406E-1,5.314527452E-2,9.162978269E-3
5.395966500E-2,2.357939780E-1,4.886921868E-2,1.099557430E-2
5.598754900E-2,2.345722616E-1,4.276056588E-2,1.160643995E-2
5.802270300E-2,2.333505303E-1,3.726277873E-2,6.108652335E-3
6.009247200E-2,2.278527319E-1,2.932153270E-2,1.160643995E-2
6.212812600E-2,2.254092693E-1,2.626720630E-2,8.552113548E-3
6.419670300E-2,2.217440903E-1,1.588249579E-2,8.552113548E-3
6.623154900E-2,2.131919712E-1,7.330383174E-3,9.773843922E-3
6.830139500E-2,2.107485086E-1,2.443460980E-3,4.276056774E-3
7.033628000E-2,2.052507252E-1,-6.108652335E-3,2.443460980E-3
7.240512600E-2,2.028072625E-1,-1.282817032E-2,-2.443460980E-3
7.448262600E-2,1.960877478E-1,-1.710422710E-2,-4.276056774E-3
7.650928000E-2,1.942551434E-1,-2.015855350E-2,-1.221730490E-3
7.854435700E-2,1.966986060E-1,-2.260201424E-2,-4.886921961E-3
8.061328000E-2,1.985312104E-1,-2.443460934E-2,-7.330383174E-3
8.264928000E-2,2.003637999E-1,-2.382374369E-2,-6.108652335E-3
8.476389500E-2,1.985312104E-1,-2.565634064E-2,-1.099557430E-2
8.675185700E-2,1.991420686E-1,-2.809980139E-2,-1.588249579E-2
8.882097200E-2,2.028072625E-1,-2.809980139E-2,-1.954768784E-2
9.085504900E-2,2.009746730E-1,-2.871066704E-2,-2.260201424E-2
9.292443400E-2,2.089159191E-1,-2.809980139E-2,-2.932153270E-2
9.500208800E-2,2.113593817E-1,-2.748893574E-2,-2.809980139E-2
9.702847200E-2,2.131919712E-1,-2.748893574E-2,-3.604105115E-2
9.906243400E-2,2.211332172E-1,-2.015855350E-2,-3.970624134E-2
1.011315490E-1,2.296853364E-1,-1.404990070E-2,-4.337143153E-2
1.031668180E-1,2.333505303E-1,-1.588249579E-2,-4.703662544E-2
1.052356640E-1,2.394591719E-1,-1.099557430E-2,-5.009094998E-2
1.072700870E-1,2.449569702E-1,-5.497787148E-3,-5.558873713E-2
1.093400870E-1,2.516764700E-1,-4.276056774E-3,-5.681046844E-2
1.113756640E-1,2.553416789E-1,-2.443460980E-3,-5.742133409E-2
1.134597800E-1,2.614503205E-1,1.221730490E-3,-5.925392732E-2
1.155276260E-1,2.651155293E-1,2.443460980E-3,-6.352998316E-2
1.175495100E-1,2.693915665E-1,4.276056774E-3,-6.047565863E-2
1.200383950E-1,2.724458873E-1,6.719517522E-3,-5.925392732E-2
1.216303950E-1,2.718350291E-1,7.330383174E-3,-5.925392732E-2
1.236308180E-1,2.730567753E-1,9.773843922E-3,-6.047565863E-2
1.257471640E-1,2.755002379E-1,1.099557430E-2,-5.681046844E-2
1.277358950E-1,2.718350291E-1,1.221730467E-2,-5.314527452E-2
1.298057410E-1,2.712241709E-1,1.038470957E-2,-4.948008433E-2
1.318405490E-1,2.712241709E-1,6.108652335E-3,-4.825835302E-2
1.339094340E-1,2.718350291E-1,0.000000000E0,-4.459316283E-2
1.359918180E-1,2.706133127E-1,-6.108652451E-4,-4.398229718E-2
1.380132030E-1,2.706133127E-1,-6.108652335E-3,-4.276056588E-2
1.400486260E-1,2.693915665E-1,-1.404990070E-2,-3.909537569E-2
1.421175870E-1,2.669481039E-1,-1.954768784E-2,-3.481931984E-2
1.441521640E-1,2.620611787E-1,-2.993239649E-2,-3.726277873E-2
1.462219330E-1,2.590068579E-1,-3.848451003E-2,-3.359758854E-2
1.482560100E-1,2.571742535E-1,-4.398229718E-2,-3.543018550E-2
1.503257410E-1,2.516764700E-1,-5.497787148E-2,-3.237585723E-2
1.523608950E-1,2.449569702E-1,-6.414084882E-2,-3.115412779E-2
1.544295870E-1,2.419026345E-1,-6.780604273E-2,-3.054326214E-2
1.565124330E-1,2.364048511E-1,-7.574728876E-2,-2.748893574E-2
1.585332410E-1,2.302961946E-1,-7.941248268E-2,-2.932153270E-2
1.605679720E-1,2.272418737E-1,-8.246681094E-2,-2.504547499E-2
1.626377410E-1,2.247984111E-1,-8.368854225E-2,-1.954768784E-2
1.646722800E-1,2.278527319E-1,-8.124507964E-2,-1.527163107E-2
1.667878180E-1,2.278527319E-1,-7.757988572E-2,-1.710422710E-2
1.687770100E-1,2.278527319E-1,-7.574728876E-2,-1.832595654E-2
1.708457410E-1,2.290744632E-1,-7.208210230E-2,-1.832595654E-2
1.728811260E-1,2.284636050E-1,-6.414084882E-2,-2.871066704E-2
1.749496260E-1,2.284636050E-1,-5.864306539E-2,-3.054326214E-2
1.770319720E-1,2.266310006E-1,-4.886921868E-2,-3.543018550E-2
1.790537790E-1,2.217440903E-1,-3.543018550E-2,-4.520402849E-2
1.810887030E-1,2.186897546E-1,-2.626720630E-2,-4.948008433E-2
1.831580870E-1,2.131919712E-1,-7.330383174E-3,-5.925392732E-2
1.851930490E-1,2.070833147E-1,1.404990070E-2,-6.597344577E-2
1.872629330E-1,1.979203373E-1,3.543018550E-2,-7.330382615E-2
1.892972790E-1,1.942551434E-1,4.703662544E-2,-7.635815442E-2
1.913672030E-1,1.869247705E-1,6.475171447E-2,-8.246681094E-2
1.934019330E-1,1.789835095E-1,8.246681094E-2,-8.674286306E-2
1.954707790E-1,1.765400618E-1,8.979719132E-2,-8.857546002E-2
1.975533950E-1,1.667662114E-1,9.957103431E-2,-8.857546002E-2
1.995752410E-1,1.588249654E-1,1.087340117E-1,-8.735372871E-2
2.016103180E-1,1.551597714E-1,1.148426682E-1,-9.346238524E-2
2.036800100E-1,1.514945775E-1,1.197295859E-1,-9.224065393E-2
2.057145100E-1,1.429424733E-1,1.221730486E-1,-8.979719132E-2
2.078305100E-1,1.398881376E-1,1.233947799E-1,-9.407325089E-2
2.098212410E-1,1.307251602E-1,1.233947799E-1,-8.918632567E-2
2.118917020E-1,1.246165112E-1,1.215621829E-1,-8.857546002E-2
2.139273950E-1,1.178969890E-1,1.197295859E-1,-9.101892263E-2
2.159977790E-1,1.093448773E-1,1.160643995E-1,-8.857546002E-2
2.180803560E-1,9.834930301E-2,1.087340117E-1,-8.857546002E-2
2.201030490E-1,8.735372871E-2,9.773843735E-2,-8.429940045E-2
2.221388560E-1,8.124507964E-2,9.285151958E-2,-8.185594529E-2
2.242088180E-1,6.780604273E-2,8.002334833E-2,-7.574728876E-2
2.262441250E-1,5.864306539E-2,6.963863969E-2,-7.330382615E-2
2.283143560E-1,4.948008433E-2,6.352998316E-2,-7.086037099E-2
2.303501250E-1,3.665191308E-2,5.192354694E-2,-6.658431143E-2
2.324201250E-1,2.871066704E-2,4.153883830E-2,-6.841690838E-2
2.344550870E-1,2.015855350E-2,3.420845419E-2,-6.169738993E-2
2.365242410E-1,1.343903504E-2,2.565634064E-2,-6.169738993E-2
2.386076640E-1,1.221730490E-3,1.404990070E-2,-5.742133409E-2
2.406292410E-1,-4.276056774E-3,4.886921961E-3,-5.864306539E-2
2.426643560E-1,-1.099557430E-2,2.443460980E-3,-5.681046844E-2
2.447338560E-1,-1.404990070E-2,-3.665191587E-3,-5.253441259E-2
2.467686640E-1,-1.710422710E-2,-7.330383174E-3,-5.375614017E-2
2.488844330E-1,-2.015855350E-2,-6.719517522E-3,-5.314527452E-2
2.508728180E-1,-2.382374369E-2,-7.941247895E-3,-5.375614017E-2
2.529420480E-1,-2.626720630E-2,-1.099557430E-2,-5.497787148E-2
2.549770100E-1,-2.687807009E-2,-1.221730467E-2,-5.619960278E-2
2.570462410E-1,-2.871066704E-2,-1.282817032E-2,-5.436700583E-2
2.591281640E-1,-2.748893574E-2,-1.160643995E-2,-5.436700583E-2
2.611495100E-1,-2.748893574E-2,-9.773843922E-3,-5.375614017E-2
2.631849330E-1,-2.565634064E-2,-7.330383174E-3,-5.253441259E-2
2.652540100E-1,-2.565634064E-2,-9.162978269E-3,-5.436700583E-2
2.672896640E-1,-2.443460934E-2,-7.330383174E-3,-5.803219974E-2
2.693577410E-1,-2.382374369E-2,-2.443460980E-3,-5.925392732E-2
2.713928560E-1,-2.015855350E-2,0.000000000E0,-6.352998316E-2
2.734613560E-1,-1.466076635E-2,7.330383174E-3,-6.780604273E-2
2.754966250E-1,-1.282817032E-2,7.330383174E-3,-6.536258012E-2
2.775658180E-1,-1.160643995E-2,1.038470957E-2,-7.086037099E-2
2.796480870E-1,-1.099557430E-2,1.466076635E-2,-6.963863969E-2
2.816693180E-1,-7.330383174E-3,1.649336144E-2,-7.269296050E-2
2.837040870E-1,-7.330383174E-3,1.954768784E-2,-7.208210230E-2
2.857728940E-1,-1.832595794E-3,2.382374369E-2,-7.635815442E-2
2.878072410E-1,-4.276056774E-3,2.504547499E-2,-7.391469181E-2
2.899230480E-1,-6.108652451E-4,3.115412779E-2,-7.635815442E-2
2.919112410E-1,3.665191587E-3,3.543018550E-2,-8.063421398E-2
2.939803180E-1,3.054326167E-3,3.481931984E-2,-8.124507964E-2
2.960147410E-1,6.719517522E-3,3.787364438E-2,-8.491026610E-2
2.980839330E-1,7.330383174E-3,4.031710699E-2,-8.857546002E-2
3.001658940E-1,7.330383174E-3,4.276056588E-2,-8.979719132E-2
3.021872410E-1,7.330383174E-3,4.337143153E-2,-9.346238524E-2
3.042224710E-1,8.552113548E-3,4.398229718E-2,-9.773843735E-2
3.062904330E-1,7.941247895E-3,4.398229718E-2,-1.014036313E-1
3.083248170E-1,4.886921961E-3,4.337143153E-2,-1.032362282E-1
3.103942410E-1,7.941247895E-3,4.276056588E-2,-1.087340117E-1
3.124287020E-1,8.552113548E-3,3.970624134E-2,-1.105666086E-1
3.144978560E-1,8.552113548E-3,4.092797264E-2,-1.117883399E-1
3.165329710E-1,7.941247895E-3,4.153883830E-2,-1.166752651E-1
3.186035480E-1,8.552113548E-3,3.848451003E-2,-1.172861308E-1
3.206858170E-1,7.941247895E-3,3.848451003E-2,-1.185078546E-1
3.227074710E-1,6.719517522E-3,3.848451003E-2,-1.178969890E-1
3.247425870E-1,1.038470957E-2,3.909537569E-2,-1.197295859E-1
3.268117020E-1,8.552113548E-3,3.726277873E-2,-1.172861308E-1
3.288472790E-1,1.099557430E-2,3.604105115E-2,-1.185078546E-1
3.309633560E-1,1.404990070E-2,4.092797264E-2,-1.191187203E-1
3.329522400E-1,1.710422710E-2,3.848451003E-2,-1.178969890E-1
3.350218560E-1,1.893682219E-2,3.909537569E-2,-1.221730486E-1
3.370568560E-1,2.382374369E-2,3.787364438E-2,-1.172861308E-1
3.391261250E-1,2.504547499E-2,3.909537569E-2,-1.197295859E-1
3.412093170E-1,2.932153270E-2,3.726277873E-2,-1.197295859E-1
3.432310480E-1,3.115412779E-2,3.787364438E-2,-1.203404516E-1
3.452652790E-1,3.604105115E-2,3.665191308E-2,-1.197295859E-1
3.473352790E-1,4.031710699E-2,3.848451003E-2,-1.185078546E-1
3.493699330E-1,4.398229718E-2,3.909537569E-2,-1.160643995E-1
3.514393560E-1,5.131268129E-2,4.276056588E-2,-1.166752651E-1
3.534737020E-1,5.558873713E-2,4.825835302E-2,-1.160643995E-1
3.555429710E-1,5.925392732E-2,5.192354694E-2,-1.123992056E-1
3.575780860E-1,6.658431143E-2,5.803219974E-2,-1.148426682E-1
3.596477790E-1,6.963863969E-2,6.108652428E-2,-1.111774743E-1
3.617299330E-1,7.208210230E-2,6.475171447E-2,-1.099557430E-1
3.637242020E-1,7.880161703E-2,7.452555746E-2,-1.099557430E-1
3.662120100E-1,8.185594529E-2,8.185594529E-2,-1.069014147E-1
3.677686250E-1,8.491026610E-2,8.552113175E-2,-1.050688252E-1
3.697683940E-1,9.162978828E-2,9.468411654E-2,-1.050688252E-1
3.718848560E-1,9.773843735E-2,1.026253626E-1,-1.032362282E-1
3.738729330E-1,9.896016866E-2,1.056796908E-1,-9.773843735E-2
3.759429710E-1,1.020144969E-1,1.185078546E-1,-9.773843735E-2
3.779775860E-1,1.062905490E-1,1.295034289E-1,-9.590584040E-2
3.800469330E-1,1.081231460E-1,1.362229437E-1,-9.101892263E-2
3.821300480E-1,1.130100712E-1,1.484402567E-1,-9.040805697E-2
3.841520090E-1,1.154535338E-1,1.612684280E-1,-8.491026610E-2
3.861869710E-1,1.191187203E-1,1.685988009E-1,-8.491026610E-2
3.882561250E-1,1.191187203E-1,1.826487035E-1,-8.307767659E-2
3.902913560E-1,1.191187203E-1,1.948660165E-1,-8.002334833E-2
3.923609710E-1,1.191187203E-1,2.070833147E-1,-7.513642311E-2
3.943956250E-1,1.197295859E-1,2.113593817E-1,-7.574728876E-2
3.964654330E-1,1.185078546E-1,2.229658216E-1,-7.513642311E-2
3.984998170E-1,1.191187203E-1,2.309070677E-1,-7.147123665E-2
4.005687400E-1,1.166752651E-1,2.339613885E-1,-7.208210230E-2
4.026510480E-1,1.166752651E-1,2.425135076E-1,-7.086037099E-2
4.046723560E-1,1.123992056E-1,2.467895597E-1,-6.963863969E-2
4.067075860E-1,1.123992056E-1,2.486221492E-1,-7.086037099E-2
4.087767020E-1,1.093448773E-1,2.528982162E-1,-7.086037099E-2
4.108113560E-1,1.038470939E-1,2.535090744E-1,-6.780604273E-2
4.129279710E-1,9.773843735E-2,2.559525371E-1,-6.963863969E-2
4.149155090E-1,9.712757170E-2,2.553416789E-1,-6.719517708E-2
4.169855860E-1,9.162978828E-2,2.571742535E-1,-6.475171447E-2
4.190206630E-1,8.674286306E-2,2.608394623E-1,-6.780604273E-2
4.210908550E-1,8.429940045E-2,2.626720667E-1,-6.719517708E-2
4.231730480E-1,7.880161703E-2,2.663372457E-1,-6.475171447E-2
4.251952020E-1,7.513642311E-2,2.687807083E-1,-6.719517708E-2
4.272300480E-1,7.208210230E-2,2.718350291E-1,-6.536258012E-2
4.292995860E-1,6.719517708E-2,2.761110961E-1,-6.414084882E-2
4.313347400E-1,6.230825558E-2,2.803871334E-1,-6.719517708E-2
4.334042020E-1,6.414084882E-2,2.822197378E-1,-6.841690838E-2
4.354394320E-1,6.047565863E-2,2.871066630E-1,-6.719517708E-2
4.375094710E-1,5.619960278E-2,2.895501256E-1,-6.719517708E-2
4.395449320E-1,5.742133409E-2,2.956587672E-1,-6.658431143E-2
4.416136630E-1,5.497787148E-2,3.005456924E-1,-6.597344577E-2
4.436962020E-1,5.558873713E-2,3.078760803E-1,-6.780604273E-2
4.457186630E-1,5.375614017E-2,3.145956099E-1,-6.414084882E-2
4.477540090E-1,5.497787148E-2,3.182607889E-1,-6.658431143E-2
4.498239320E-1,5.436700583E-2,3.268128932E-1,-6.841690838E-2
4.518587780E-1,5.803219974E-2,3.353650272E-1,-6.902777404E-2
4.539751630E-1,5.558873713E-2,3.384193480E-1,-6.719517708E-2
4.559732020E-1,5.742133409E-2,3.475823104E-1,-7.330382615E-2
4.580428940E-1,6.108652428E-2,3.585779071E-1,-7.513642311E-2
4.600782780E-1,6.047565863E-2,3.628539443E-1,-7.024950534E-2
4.621480860E-1,6.597344577E-2,3.744603992E-1,-8.002334833E-2
4.642313550E-1,6.841690838E-2,3.848451078E-1,-7.819075137E-2
4.662530860E-1,6.963863969E-2,3.897320330E-1,-8.002334833E-2
4.682882010E-1,7.147123665E-2,4.001167417E-1,-8.491026610E-2
4.703573940E-1,7.513642311E-2,4.080579877E-1,-8.429940045E-2
4.723920090E-1,7.696902007E-2,4.159992337E-1,-9.285151958E-2
4.744618170E-1,7.574728876E-2,4.190535545E-1,-9.040805697E-2
4.764965480E-1,7.941248268E-2,4.263839424E-1,-9.529497474E-2
4.785661240E-1,8.307767659E-2,4.343251884E-1,-9.834930301E-2
4.806004710E-1,8.613199741E-2,4.373795092E-1,-1.001819000E-1
4.826702400E-1,8.857546002E-2,4.459316432E-1,-9.957103431E-2
4.847524320E-1,9.101892263E-2,4.495968223E-1,-1.020144969E-1
4.867740090E-1,9.224065393E-2,4.514294267E-1,-1.032362282E-1
4.888097400E-1,9.590584040E-2,4.526511431E-1,-1.020144969E-1
4.908792010E-1,9.773843735E-2,4.538728893E-1,-1.007927656E-1
4.929138550E-1,9.773843735E-2,4.514294267E-1,-1.032362282E-1
4.950302010E-1,9.773843735E-2,4.489859641E-1,-1.007927656E-1
4.970190860E-1,1.014036313E-1,4.447098970E-1,-1.056796908E-1
4.990888550E-1,1.038470939E-1,4.410447180E-1,-1.069014147E-1
5.011240470E-1,1.038470939E-1,4.386012554E-1,-1.032362282E-1
5.031930860E-1,1.056796908E-1,4.318817258E-1,-1.001819000E-1
5.052760860E-1,1.099557430E-1,4.276056588E-1,-9.957103431E-2
5.072984710E-1,1.099557430E-1,4.263839424E-1,-9.712757170E-2
5.093343170E-1,1.142318025E-1,4.208861589E-1,-9.468411654E-2
5.114051240E-1,1.172861308E-1,4.141666293E-1,-8.979719132E-2
5.134409710E-1,1.185078546E-1,4.098905921E-1,-9.101892263E-2
5.155110470E-1,1.246165112E-1,4.068362415E-1,-8.735372871E-2
5.175468940E-1,1.252273768E-1,4.025602043E-1,-8.674286306E-2
5.196173170E-1,1.301143020E-1,4.013384581E-1,-8.918632567E-2
5.216528170E-1,1.331686229E-1,4.001167417E-1,-8.491026610E-2
5.237378170E-1,1.362229437E-1,3.970624208E-1,-8.491026610E-2
5.258058170E-1,1.386664063E-1,3.976732790E-1,-8.429940045E-2
5.278292780E-1,1.386664063E-1,3.958406746E-1,-8.246681094E-2
5.298647010E-1,1.466076523E-1,3.995058835E-1,-8.185594529E-2
5.319346240E-1,1.441642046E-1,4.031710625E-1,-8.124507964E-2
5.339705090E-1,1.459967941E-1,4.074471295E-1,-8.491026610E-2
5.360873170E-1,1.441642046E-1,4.135557711E-1,-8.307767659E-2
5.380766240E-1,1.429424733E-1,4.184426963E-1,-8.429940045E-2
5.401473930E-1,1.417207420E-1,4.208861589E-1,-8.491026610E-2
5.421829700E-1,1.398881376E-1,4.269948006E-1,-8.796459436E-2
5.442527780E-1,1.350012124E-1,4.337143302E-1,-8.735372871E-2
5.463364320E-1,1.331686229E-1,4.361577928E-1,-8.735372871E-2
5.483587400E-1,1.331686229E-1,4.398229718E-1,-9.101892263E-2
5.503945860E-1,1.270599663E-1,4.447098970E-1,-9.224065393E-2
5.524647010E-1,1.221730486E-1,4.471533597E-1,-9.162978828E-2
5.545012780E-1,1.209513173E-1,4.489859641E-1,-8.857546002E-2
5.565707400E-1,1.154535338E-1,4.489859641E-1,-9.407325089E-2
5.586070470E-1,1.123992056E-1,4.477642179E-1,-9.468411654E-2
5.606769700E-1,1.117883399E-1,4.471533597E-1,-9.590584040E-2
5.627127010E-1,1.038470939E-1,4.434881806E-1,-9.957103431E-2
5.647833160E-1,9.896016866E-2,4.367686510E-1,-1.014036313E-1
5.668658160E-1,1.007927656E-1,4.331034720E-1,-1.014036313E-1
5.688888930E-1,9.285151958E-2,4.239404798E-1,-1.014036313E-1
5.709241240E-1,8.491026610E-2,4.172209501E-1,-9.896016866E-2
5.729942400E-1,8.307767659E-2,4.105014503E-1,-1.014036313E-1
5.750298550E-1,7.696902007E-2,3.988949955E-1,-1.032362282E-1
5.771471240E-1,7.147123665E-2,3.830125034E-1,-1.001819000E-1
5.791365860E-1,6.597344577E-2,3.750712574E-1,-9.957103431E-2
5.812077010E-1,6.169738993E-2,3.604104817E-1,-1.050688252E-1
5.832427010E-1,5.742133409E-2,3.445279896E-1,-1.014036313E-1
5.853118930E-1,5.192354694E-2,3.286454976E-1,-1.026253626E-1
5.873945860E-1,4.764748737E-2,3.213151097E-1,-1.062905490E-1
5.894169320E-1,4.031710699E-2,3.048217595E-1,-1.026253626E-1
5.914527780E-1,3.420845419E-2,2.907718420E-1,-1.062905490E-1
5.935223160E-1,3.115412779E-2,2.828305960E-1,-1.081231460E-1
5.955578160E-1,2.260201424E-2,2.651155293E-1,-1.050688252E-1
5.976277780E-1,1.588249579E-2,2.516764700E-1,-1.117883399E-1
5.996627390E-1,8.552113548E-3,2.437352389E-1,-1.123992056E-1
6.017327010E-1,-1.221730490E-3,2.247984111E-1,-1.136209369E-1
6.037680090E-1,-8.552113548E-3,2.064724565E-1,-1.203404516E-1
6.058384700E-1,-1.954768784E-2,1.973094791E-1,-1.233947799E-1
6.079207780E-1,-2.809980139E-2,1.826487035E-1,-1.215621829E-1
6.099430860E-1,-4.031710699E-2,1.673770845E-1,-1.325577646E-1
6.124306240E-1,-4.948008433E-2,1.527163088E-1,-1.374446750E-1
6.140228160E-1,-5.864306539E-2,1.447750628E-1,-1.374446750E-1
6.160229700E-1,-6.719517708E-2,1.313360333E-1,-1.453859210E-1
6.181391240E-1,-8.307767659E-2,1.197295859E-1,-1.508837193E-1
6.201284700E-1,-9.101892263E-2,1.136209369E-1,-1.527163088E-1
6.221980850E-1,-1.032362282E-1,1.020144969E-1,-1.594358236E-1
6.242337780E-1,-1.154535338E-1,9.407325089E-2,-1.631010175E-1
6.263037780E-1,-1.233947799E-1,8.979719132E-2,-1.631010175E-1
6.283860850E-1,-1.325577646E-1,8.185594529E-2,-1.661553532E-1
6.304092010E-1,-1.447750628E-1,7.391469181E-2,-1.685988009E-1
6.324451620E-1,-1.484402567E-1,7.086037099E-2,-1.661553532E-1
6.345150090E-1,-1.576032341E-1,6.230825558E-2,-1.673770845E-1
6.365507390E-1,-1.667662114E-1,5.681046844E-2,-1.631010175E-1
6.386208930E-1,-1.722639948E-1,5.192354694E-2,-1.582140923E-1
6.406565080E-1,-1.740965992E-1,5.070181563E-2,-1.588249654E-1
6.427265080E-1,-1.783726513E-1,4.581489414E-2,-1.539380401E-1
6.447622010E-1,-1.826487035E-1,3.726277873E-2,-1.435533315E-1
6.468325850E-1,-1.826487035E-1,3.604105115E-2,-1.411098689E-1
6.489160470E-1,-1.863138974E-1,2.748893574E-2,-1.295034289E-1
6.509372010E-1,-1.850921661E-1,2.382374369E-2,-1.185078546E-1
6.529723930E-1,-1.850921661E-1,2.076941915E-2,-1.130100712E-1
6.550422780E-1,-1.795943826E-1,1.832595654E-2,-1.038470939E-1
6.570778930E-1,-1.771509200E-1,1.649336144E-2,-8.918632567E-2
6.591937010E-1,-1.747074574E-1,1.588249579E-2,-8.307767659E-2
6.611832780E-1,-1.679879427E-1,1.893682219E-2,-7.269296050E-2
6.632533550E-1,-1.594358236E-1,2.015855350E-2,-6.169738993E-2
6.652887780E-1,-1.563815027E-1,1.954768784E-2,-5.497787148E-2
6.673584700E-1,-1.484402567E-1,2.504547499E-2,-4.581489414E-2
6.694410850E-1,-1.404990107E-1,2.932153270E-2,-3.543018550E-2
6.714638930E-1,-1.258382350E-1,3.543018550E-2,-2.871066704E-2
6.734992010E-1,-1.215621829E-1,4.214970022E-2,-2.504547499E-2
6.755689310E-1,-1.099557430E-1,4.886921868E-2,-2.015855350E-2
6.776041240E-1,-9.957103431E-2,5.681046844E-2,-1.588249579E-2
6.796730850E-1,-9.224065393E-2,6.352998316E-2,-1.282817032E-2
6.817082010E-1,-8.185594529E-2,6.963863969E-2,-1.038470957E-2
6.837776620E-1,-7.024950534E-2,7.696902007E-2,-1.282817032E-2
6.858140470E-1,-6.719517708E-2,8.185594529E-2,-1.099557430E-2
6.878831240E-1,-5.925392732E-2,8.491026610E-2,-1.221730467E-2
6.899657390E-1,-4.642575979E-2,8.918632567E-2,-1.404990070E-2
6.919883930E-1,-3.970624134E-2,8.796459436E-2,-1.527163107E-2
6.940237390E-1,-3.604105115E-2,8.979719132E-2,-1.649336144E-2
6.960935080E-1,-2.993239649E-2,8.857546002E-2,-2.199114859E-2
6.981288160E-1,-2.382374369E-2,8.613199741E-2,-2.504547499E-2
7.002447010E-1,-1.832595654E-2,8.368854225E-2,-2.687807009E-2
7.022342010E-1,-1.771509275E-2,7.819075137E-2,-2.687807009E-2
7.043042010E-1,-1.343903504E-2,7.208210230E-2,-3.298672289E-2
7.063390470E-1,-1.282817032E-2,6.902777404E-2,-3.604105115E-2
7.084084700E-1,-1.099557430E-2,6.047565863E-2,-3.665191308E-2
7.104913160E-1,-1.038470957E-2,5.375614017E-2,-3.787364438E-2
7.125124700E-1,-8.552113548E-3,5.192354694E-2,-3.970624134E-2
7.145473160E-1,-9.162978269E-3,4.337143153E-2,-4.092797264E-2
7.166172010E-1,-9.162978269E-3,3.665191308E-2,-4.703662544E-2
7.186522010E-1,-9.162978269E-3,3.298672289E-2,-4.703662544E-2
7.207212390E-1,-1.527163107E-2,2.809980139E-2,-4.703662544E-2
7.227562770E-1,-1.404990070E-2,1.954768784E-2,-4.764748737E-2
7.248261620E-1,-1.527163107E-2,1.466076635E-2,-5.009094998E-2
7.268614310E-1,-1.771509275E-2,1.404990070E-2,-5.009094998E-2
7.289311620E-1,-1.771509275E-2,1.160643995E-2,-5.131268129E-2
7.310139700E-1,-1.954768784E-2,7.941247895E-3,-4.948008433E-2
7.330366240E-1,-1.893682219E-2,7.330383174E-3,-5.131268129E-2
7.350715850E-1,-2.260201424E-2,6.108652335E-3,-5.192354694E-2
7.371412390E-1,-2.321287990E-2,1.832595794E-3,-5.375614017E-2
7.391772770E-1,-2.626720630E-2,3.054326167E-3,-4.886921868E-2
7.412936230E-1,-2.504547499E-2,1.221730490E-3,-4.764748737E-2
7.432830080E-1,-2.382374369E-2,2.443460980E-3,-4.886921868E-2
7.453533930E-1,-2.687807009E-2,1.221730490E-3,-4.642575979E-2
7.473890080E-1,-2.443460934E-2,3.665191587E-3,-4.459316283E-2
7.494594700E-1,-2.443460934E-2,-6.108652451E-4,-4.459316283E-2
7.515424310E-1,-2.199114859E-2,1.221730490E-3,-4.214970022E-2
7.535649310E-1,-1.954768784E-2,6.108652451E-4,-4.092797264E-2
7.555995850E-1,-2.138028294E-2,-4.276056774E-3,-3.665191308E-2
7.576698160E-1,-1.527163107E-2,-4.276056774E-3,-3.604105115E-2
7.597052770E-1,-1.710422710E-2,-5.497787148E-3,-3.359758854E-2
7.617746230E-1,-1.221730467E-2,-8.552113548E-3,-3.359758854E-2
7.638091620E-1,-9.773843922E-3,-1.160643995E-2,-2.871066704E-2
7.658789310E-1,-8.552113548E-3,-1.160643995E-2,-2.809980139E-2
7.679136230E-1,-6.108652335E-3,-1.832595654E-2,-2.382374369E-2
7.699830080E-1,-4.886921961E-3,-2.260201424E-2,-2.260201424E-2
7.720651230E-1,-3.054326167E-3,-2.443460934E-2,-2.260201424E-2
7.740875080E-1,-2.443460980E-3,-2.993239649E-2,-1.893682219E-2
7.761227000E-1,3.054326167E-3,-3.420845419E-2,-1.466076635E-2
7.781923160E-1,3.054326167E-3,-4.153883830E-2,-1.221730467E-2
7.802270850E-1,6.108652335E-3,-4.459316283E-2,-9.773843922E-3
7.823436620E-1,6.719517522E-3,-5.131268129E-2,-3.054326167E-3
7.843331620E-1,6.719517522E-3,-5.619960278E-2,-1.221730490E-3
7.864032000E-1,1.160643995E-2,-5.925392732E-2,-1.221730490E-3
7.884386620E-1,1.160643995E-2,-6.475171447E-2,5.497787148E-3
7.905082000E-1,1.282817032E-2,-6.963863969E-2,7.330383174E-3
7.925898930E-1,1.221730467E-2,-7.208210230E-2,7.330383174E-3
7.946130850E-1,1.527163107E-2,-7.696902007E-2,1.038470957E-2
7.966473160E-1,1.771509275E-2,-8.124507964E-2,1.466076635E-2
7.987176230E-1,1.832595654E-2,-8.246681094E-2,1.771509275E-2
8.007526230E-1,1.832595654E-2,-8.796459436E-2,2.076941915E-2
8.028226230E-1,2.443460934E-2,-9.040805697E-2,2.321287990E-2
8.048577390E-1,2.993239649E-2,-9.468411654E-2,2.443460934E-2
8.069274690E-1,2.504547499E-2,-9.468411654E-2,2.565634064E-2
8.089626230E-1,2.932153270E-2,-9.957103431E-2,2.993239649E-2
8.110322770E-1,2.993239649E-2,-1.007927656E-1,3.420845419E-2
8.131152770E-1,3.665191308E-2,-1.032362282E-1,3.237585723E-2
8.151379690E-1,3.726277873E-2,-1.038470939E-1,3.543018550E-2
8.171733160E-1,3.848451003E-2,-1.056796908E-1,3.970624134E-2
8.192437390E-1,4.214970022E-2,-1.087340117E-1,4.031710699E-2
8.212791620E-1,4.276056588E-2,-1.069014147E-1,4.276056588E-2
8.233962390E-1,4.886921868E-2,-1.075122803E-1,4.276056588E-2
8.253859690E-1,5.192354694E-2,-1.056796908E-1,4.092797264E-2
8.274560850E-1,5.681046844E-2,-1.056796908E-1,4.276056588E-2
8.294924690E-1,6.291911751E-2,-1.044579595E-1,4.520402849E-2
8.315619690E-1,6.780604273E-2,-1.038470939E-1,4.764748737E-2
8.336445850E-1,6.597344577E-2,-1.044579595E-1,5.131268129E-2
8.356673920E-1,7.391469181E-2,-1.020144969E-1,4.825835302E-2
8.377023540E-1,7.819075137E-2,-1.014036313E-1,4.642575979E-2
8.397723540E-1,7.880161703E-2,-1.001819000E-1,4.703662544E-2
8.418076620E-1,8.429940045E-2,-9.834930301E-2,4.337143153E-2
8.438781620E-1,8.979719132E-2,-9.896016866E-2,4.214970022E-2
8.459136230E-1,9.040805697E-2,-9.651670605E-2,4.153883830E-2
8.479835850E-1,9.407325089E-2,-9.773843735E-2,4.092797264E-2
8.500197770E-1,9.651670605E-2,-9.651670605E-2,4.031710699E-2
8.520905080E-1,1.020144969E-1,-9.590584040E-2,4.031710699E-2
8.541734690E-1,1.026253626E-1,-9.712757170E-2,3.604105115E-2
8.561966230E-1,1.075122803E-1,-9.773843735E-2,3.298672289E-2
8.586864310E-1,1.099557430E-1,-9.651670605E-2,2.993239649E-2
8.602790460E-1,1.142318025E-1,-9.651670605E-2,2.443460934E-2
8.622801230E-1,1.136209369E-1,-9.407325089E-2,2.504547499E-2
8.643970460E-1,1.160643995E-1,-9.285151958E-2,1.771509275E-2
8.663872000E-1,1.197295859E-1,-8.918632567E-2,1.404990070E-2
8.684581230E-1,1.197295859E-1,-8.429940045E-2,1.282817032E-2
8.704935850E-1,1.191187203E-1,-8.246681094E-2,1.099557430E-2
8.725639310E-1,1.240056455E-1,-7.880161703E-2,1.099557430E-2
8.746462380E-1,1.227839142E-1,-7.330382615E-2,7.330383174E-3
8.766694310E-1,1.203404516E-1,-6.963863969E-2,7.330383174E-3
8.787052770E-1,1.203404516E-1,-6.902777404E-2,9.773843922E-3
8.807753150E-1,1.191187203E-1,-6.414084882E-2,7.330383174E-3
8.828105080E-1,1.191187203E-1,-6.047565863E-2,3.054326167E-3
8.848810460E-1,1.148426682E-1,-5.986479297E-2,3.665191587E-3
8.869172770E-1,1.099557430E-1,-5.681046844E-2,1.221730490E-3
8.889879310E-1,1.111774743E-1,-5.436700583E-2,1.832595794E-3
8.910234310E-1,1.087340117E-1,-5.497787148E-2,-5.497787148E-3
8.930934310E-1,1.069014147E-1,-5.070181563E-2,-6.108652335E-3
8.951766610E-1,1.032362282E-1,-5.253441259E-2,-5.497787148E-3
8.971987770E-1,1.044579595E-1,-5.131268129E-2,-9.773843922E-3
8.992338920E-1,9.957103431E-2,-5.192354694E-2,-7.941247895E-3
9.013035840E-1,9.651670605E-2,-5.314527452E-2,-1.099557430E-2
9.033388920E-1,9.468411654E-2,-5.558873713E-2,-9.773843922E-3
9.054550070E-1,9.162978828E-2,-5.558873713E-2,-1.282817032E-2
9.074441230E-1,8.979719132E-2,-5.803219974E-2,-1.404990070E-2
9.095150460E-1,8.613199741E-2,-6.169738993E-2,-1.221730467E-2
9.115497380E-1,8.613199741E-2,-6.230825558E-2,-1.404990070E-2
9.136198150E-1,8.429940045E-2,-6.597344577E-2,-1.649336144E-2
9.157025070E-1,8.124507964E-2,-6.841690838E-2,-1.404990070E-2
9.177249690E-1,7.880161703E-2,-7.269296050E-2,-1.588249579E-2
9.197602380E-1,7.880161703E-2,-7.452555746E-2,-1.710422710E-2
9.218301230E-1,7.757988572E-2,-7.941248268E-2,-1.832595654E-2
9.238662380E-1,7.574728876E-2,-8.552113175E-2,-1.343903504E-2
9.259361610E-1,7.391469181E-2,-8.552113175E-2,-1.466076635E-2
9.279714300E-1,7.452555746E-2,-9.040805697E-2,-1.527163107E-2
9.300416230E-1,7.574728876E-2,-9.285151958E-2,-1.404990070E-2
9.320766610E-1,7.391469181E-2,-9.468411654E-2,-1.221730467E-2
9.341614300E-1,7.513642311E-2,-9.896016866E-2,-1.160643995E-2
9.362298150E-1,7.452555746E-2,-1.014036313E-1,-1.282817032E-2
9.382527380E-1,7.635815442E-2,-1.044579595E-1,-9.773843922E-3
9.402880840E-1,7.452555746E-2,-1.075122803E-1,-9.162978269E-3
9.423580840E-1,7.880161703E-2,-1.105666086E-1,-9.773843922E-3
9.443936610E-1,8.063421398E-2,-1.142318025E-1,-7.941247895E-3
9.465098150E-1,7.941248268E-2,-1.160643995E-1,-9.773843922E-3
9.485085070E-1,8.124507964E-2,-1.160643995E-1,-9.773843922E-3
9.505782770E-1,7.941248268E-2,-1.172861308E-1,-5.497787148E-3
9.526133920E-1,8.124507964E-2,-1.191187203E-1,-3.054326167E-3
9.546833920E-1,8.124507964E-2,-1.197295859E-1,-4.886921961E-3
9.567661610E-1,8.185594529E-2,-1.197295859E-1,-1.221730490E-3
9.587880460E-1,8.491026610E-2,-1.215621829E-1,-1.832595794E-3
9.608237380E-1,8.735372871E-2,-1.191187203E-1,-6.108652335E-3
9.628932000E-1,8.918632567E-2,-1.172861308E-1,-4.276056774E-3
9.649288920E-1,9.224065393E-2,-1.178969890E-1,-7.941247895E-3
9.669983920E-1,9.162978828E-2,-1.172861308E-1,-3.054326167E-3
9.690338530E-1,9.162978828E-2,-1.166752651E-1,-4.886921961E-3
9.711028530E-1,9.407325089E-2,-1.130100712E-1,-6.108652335E-3
9.731385840E-1,9.407325089E-2,-1.123992056E-1,-7.941247895E-3
9.752077380E-1,9.346238524E-2,-1.093448773E-1,-6.108652335E-3
9.772902380E-1,9.590584040E-2,-1.075122803E-1,-9.162978269E-3
9.793123530E-1,9.407325089E-2,-1.062905490E-1,-7.941247895E-3
9.813475460E-1,9.651670605E-2,-1.020144969E-1,-1.343903504E-2
9.834173150E-1,9.346238524E-2,-9.957103431E-2,-1.221730467E-2
9.854532380E-1,9.407325089E-2,-9.712757170E-2,-1.343903504E-2
9.875696990E-1,9.285151958E-2,-9.162978828E-2,-1.099557430E-2
9.895591230E-1,9.468411654E-2,-8.674286306E-2,-1.404990070E-2
9.916295840E-1,9.529497474E-2,-8.491026610E-2,-1.282817032E-2
9.936647760E-1,9.346238524E-2,-7.941248268E-2,-1.527163107E-2
9.957344300E-1,9.040805697E-2,-7.330382615E-2,-1.099557430E-2
9.978170840E-1,8.979719132E-2,-6.780604273E-2,-1.404990070E-2
9.998396990E-1,9.285151958E-2,-6.597344577E-2,-1.343903504E-2
1.001875238E0,9.285151958E-2,-5.803219974E-2,-1.282817032E-2
1.003946507E0,8.979719132E-2,-4.948008433E-2,-1.343903504E-2
1.005981622E0,9.162978828E-2,-4.703662544E-2,-1.221730467E-2
1.008052161E0,8.796459436E-2,-3.909537569E-2,-1.038470957E-2
1.010087892E0,9.040805697E-2,-3.604105115E-2,-1.221730467E-2
1.012157199E0,9.162978828E-2,-3.237585723E-2,-1.282817032E-2
1.014192469E0,9.162978828E-2,-2.504547499E-2,-8.552113548E-3
1.016262892E0,9.040805697E-2,-1.893682219E-2,-9.162978269E-3
1.018346084E0,9.162978828E-2,-1.588249579E-2,-8.552113548E-3
1.020368699E0,9.285151958E-2,-1.160643995E-2,-5.497787148E-3
1.022404161E0,9.407325089E-2,-3.054326167E-3,-8.552113548E-3
1.024473738E0,9.285151958E-2,1.221730490E-3,-4.276056774E-3
1.026509392E0,9.346238524E-2,3.665191587E-3,-3.054326167E-3
1.028625584E0,9.407325089E-2,8.552113548E-3,-6.719517522E-3
1.030613892E0,9.468411654E-2,1.282817032E-2,-3.054326167E-3
1.032683276E0,9.162978828E-2,1.404990070E-2,-3.054326167E-3
1.034718584E0,9.224065393E-2,1.771509275E-2,-6.719517522E-3
1.036788699E0,8.979719132E-2,2.138028294E-2,-1.832595794E-3
1.038871045E0,9.040805697E-2,2.382374369E-2,-1.832595794E-3
1.040893276E0,8.735372871E-2,2.871066704E-2,-4.886921961E-3
1.042928776E0,8.552113175E-2,2.993239649E-2,3.054326167E-3
1.044998968E0,8.429940045E-2,3.115412779E-2,3.665191587E-3
1.047034199E0,8.429940045E-2,3.115412779E-2,3.054326167E-3
1.049104161E0,8.429940045E-2,3.481931984E-2,3.054326167E-3
1.051139315E0,8.307767659E-2,3.543018550E-2,3.054326167E-3
1.053209776E0,8.246681094E-2,3.481931984E-2,3.054326167E-3
1.055246122E0,8.124507964E-2,3.543018550E-2,3.665191587E-3
1.057315853E0,8.185594529E-2,3.359758854E-2,1.832595794E-3
1.059398930E0,8.246681094E-2,3.054326214E-2,3.054326167E-3
1.061421161E0,7.696902007E-2,2.993239649E-2,-1.221730490E-3
1.063456045E0,7.757988572E-2,2.687807009E-2,0.000000000E0
1.065525661E0,7.513642311E-2,2.443460934E-2,-6.108652451E-4
1.067560930E0,7.452555746E-2,2.076941915E-2,1.832595794E-3
1.069676661E0,7.391469181E-2,1.832595654E-2,-1.832595794E-3
1.071665738E0,7.269296050E-2,1.649336144E-2,-4.886921961E-3
1.073735199E0,6.963863969E-2,1.343903504E-2,-5.497787148E-3
1.075770430E0,6.841690838E-2,1.099557430E-2,-7.330383174E-3
1.077840238E0,6.536258012E-2,6.108652335E-3,-1.099557430E-2
1.079922776E0,6.719517708E-2,3.665191587E-3,-1.038470957E-2
1.081944507E0,6.414084882E-2,1.832595794E-3,-1.710422710E-2
1.083979661E0,6.108652428E-2,-1.832595794E-3,-1.832595654E-2
1.086049238E0,6.108652428E-2,-4.276056774E-3,-2.504547499E-2
1.088083853E0,5.619960278E-2,-7.330383174E-3,-2.932153270E-2
1.090153968E0,5.436700583E-2,-1.038470957E-2,-3.359758854E-2
1.092188353E0,5.131268129E-2,-1.099557430E-2,-3.298672289E-2
1.094258584E0,4.642575979E-2,-1.343903504E-2,-3.909537569E-2
1.096294122E0,4.398229718E-2,-1.771509275E-2,-4.214970022E-2
1.098363238E0,4.153883830E-2,-1.832595654E-2,-4.520402849E-2
1.100445276E0,3.787364438E-2,-2.138028294E-2,-4.642575979E-2
1.102467661E0,2.871066704E-2,-2.382374369E-2,-4.642575979E-2
1.104954468E0,2.321287990E-2,-2.382374369E-2,-5.436700583E-2
1.106546699E0,2.199114859E-2,-2.565634064E-2,-5.986479297E-2
1.108547622E0,1.527163107E-2,-3.115412779E-2,-6.047565863E-2
1.110663968E0,7.941247895E-3,-3.359758854E-2,-6.169738993E-2
1.112652584E0,7.330383174E-3,-3.237585723E-2,-6.780604273E-2
1.114722045E0,-3.054326167E-3,-3.481931984E-2,-7.208210230E-2
1.116756891E0,-6.108652335E-3,-3.726277873E-2,-7.391469181E-2
1.118825814E0,-9.162978269E-3,-4.092797264E-2,-7.635815442E-2
1.120908122E0,-1.343903504E-2,-4.398229718E-2,-7.819075137E-2
1.122930084E0,-2.138028294E-2,-4.703662544E-2,-8.185594529E-2
1.124965391E0,-2.199114859E-2,-4.886921868E-2,-8.429940045E-2
1.127034160E0,-2.687807009E-2,-5.314527452E-2,-8.124507964E-2
1.129069584E0,-3.359758854E-2,-5.253441259E-2,-8.063421398E-2
1.131138584E0,-3.665191308E-2,-5.314527452E-2,-7.635815442E-2
1.133173930E0,-3.787364438E-2,-5.619960278E-2,-7.635815442E-2
1.135243545E0,-4.398229718E-2,-6.047565863E-2,-7.208210230E-2
1.137278160E0,-4.642575979E-2,-6.108652428E-2,-7.086037099E-2
1.139347507E0,-4.581489414E-2,-6.475171447E-2,-7.024950534E-2
1.141429199E0,-4.948008433E-2,-6.658431143E-2,-6.536258012E-2
1.143452084E0,-4.764748737E-2,-6.902777404E-2,-6.658431143E-2
1.145486891E0,-5.314527452E-2,-6.963863969E-2,-6.047565863E-2
1.147556276E0,-5.070181563E-2,-7.086037099E-2,-5.925392732E-2
1.149591699E0,-4.886921868E-2,-7.330382615E-2,-5.742133409E-2
1.151707237E0,-5.131268129E-2,-7.208210230E-2,-5.497787148E-2
1.153695699E0,-5.131268129E-2,-7.147123665E-2,-5.131268129E-2
1.155765276E0,-5.009094998E-2,-7.330382615E-2,-4.948008433E-2
1.157800199E0,-4.948008433E-2,-7.330382615E-2,-4.764748737E-2
1.159870007E0,-5.009094998E-2,-7.086037099E-2,-4.276056588E-2
1.161952507E0,-5.131268129E-2,-6.780604273E-2,-4.520402849E-2
1.163975660E0,-5.070181563E-2,-6.719517708E-2,-4.092797264E-2
1.166011045E0,-5.375614017E-2,-6.658431143E-2,-3.909537569E-2
1.168080968E0,-5.619960278E-2,-6.291911751E-2,-3.787364438E-2
1.170116430E0,-5.986479297E-2,-6.352998316E-2,-3.543018550E-2
1.172186468E0,-5.742133409E-2,-6.108652428E-2,-3.787364438E-2
1.174221737E0,-6.230825558E-2,-6.047565863E-2,-3.726277873E-2
1.176291737E0,-6.658431143E-2,-5.986479297E-2,-3.420845419E-2
1.178327006E0,-6.658431143E-2,-5.925392732E-2,-3.726277873E-2
1.180395891E0,-7.208210230E-2,-6.108652428E-2,-3.787364438E-2
1.182478737E0,-7.757988572E-2,-6.352998316E-2,-3.787364438E-2
1.184500891E0,-8.002334833E-2,-6.414084882E-2,-3.970624134E-2
1.186536199E0,-8.796459436E-2,-6.902777404E-2,-4.153883830E-2
1.188606160E0,-9.468411654E-2,-7.208210230E-2,-4.459316283E-2
1.190640929E0,-9.407325089E-2,-7.452555746E-2,-4.886921868E-2
1.192757083E0,-1.007927656E-1,-8.063421398E-2,-4.825835302E-2
1.194747968E0,-1.062905490E-1,-8.429940045E-2,-5.009094998E-2
1.196817160E0,-1.099557430E-1,-8.979719132E-2,-5.558873713E-2
1.198852429E0,-1.111774743E-1,-9.224065393E-2,-5.375614017E-2
1.200923814E0,-1.148426682E-1,-9.834930301E-2,-5.253441259E-2
1.203006468E0,-1.209513173E-1,-1.038470939E-1,-5.742133409E-2
1.205029045E0,-1.240056455E-1,-1.056796908E-1,-5.742133409E-2
1.207064583E0,-1.258382350E-1,-1.081231460E-1,-5.864306539E-2
1.209134545E0,-1.295034289E-1,-1.166752651E-1,-6.047565863E-2
1.211170237E0,-1.313360333E-1,-1.148426682E-1,-5.864306539E-2
1.213240237E0,-1.319468915E-1,-1.185078546E-1,-6.108652428E-2
1.215275391E0,-1.350012124E-1,-1.227839142E-1,-6.291911751E-2
1.217344814E0,-1.362229437E-1,-1.215621829E-1,-6.291911751E-2
1.219379737E0,-1.374446750E-1,-1.246165112E-1,-6.169738993E-2
1.221449583E0,-1.374446750E-1,-1.264491081E-1,-6.352998316E-2
1.223532391E0,-1.386664063E-1,-1.270599663E-1,-6.230825558E-2
1.225553968E0,-1.380555481E-1,-1.276708394E-1,-6.230825558E-2
1.227589506E0,-1.380555481E-1,-1.282816976E-1,-6.291911751E-2
1.229659045E0,-1.411098689E-1,-1.288925707E-1,-5.864306539E-2
1.231694122E0,-1.386664063E-1,-1.288925707E-1,-6.108652428E-2
1.233809968E0,-1.423316002E-1,-1.301143020E-1,-5.925392732E-2
1.235798160E0,-1.404990107E-1,-1.282816976E-1,-5.619960278E-2
1.237868160E0,-1.398881376E-1,-1.276708394E-1,-5.436700583E-2
1.239902737E0,-1.411098689E-1,-1.307251602E-1,-5.314527452E-2
1.241971622E0,-1.417207420E-1,-1.313360333E-1,-4.948008433E-2
1.244054891E0,-1.417207420E-1,-1.288925707E-1,-4.764748737E-2
1.246077622E0,-1.423316002E-1,-1.319468915E-1,-4.581489414E-2
1.248113122E0,-1.435533315E-1,-1.319468915E-1,-4.337143153E-2
1.250182814E0,-1.423316002E-1,-1.313360333E-1,-3.909537569E-2
1.252217852E0,-1.423316002E-1,-1.325577646E-1,-3.787364438E-2
1.254287352E0,-1.435533315E-1,-1.295034289E-1,-3.665191308E-2
1.256322391E0,-1.459967941E-1,-1.325577646E-1,-3.054326214E-2
1.258391814E0,-1.435533315E-1,-1.325577646E-1,-3.359758854E-2
1.260427391E0,-1.423316002E-1,-1.319468915E-1,-2.932153270E-2
1.262496314E0,-1.429424733E-1,-1.282816976E-1,-2.260201424E-2
1.264579314E0,-1.429424733E-1,-1.288925707E-1,-2.076941915E-2
1.266601660E0,-1.453859210E-1,-1.282816976E-1,-1.527163107E-2
1.268637045E0,-1.466076523E-1,-1.264491081E-1,-1.038470957E-2
1.270707237E0,-1.411098689E-1,-1.240056455E-1,-1.343903504E-2
1.272742198E0,-1.423316002E-1,-1.221730486E-1,-8.552113548E-3
1.274857891E0,-1.429424733E-1,-1.197295859E-1,-1.832595794E-3
1.276847045E0,-1.423316002E-1,-1.166752651E-1,-6.108652451E-4
1.278916698E0,-1.398881376E-1,-1.178969890E-1,3.054326167E-3
1.280951775E0,-1.392772794E-1,-1.166752651E-1,7.330383174E-3
1.283022083E0,-1.392772794E-1,-1.142318025E-1,8.552113548E-3
1.285105660E0,-1.362229437E-1,-1.130100712E-1,1.160643995E-2
1.287127737E0,-1.368338168E-1,-1.130100712E-1,1.649336144E-2
1.289163737E0,-1.337794960E-1,-1.130100712E-1,1.649336144E-2
1.291233391E0,-1.343903542E-1,-1.123992056E-1,2.015855350E-2
1.293269198E0,-1.337794960E-1,-1.123992056E-1,2.443460934E-2
1.295338852E0,-1.331686229E-1,-1.105666086E-1,2.199114859E-2
1.297373314E0,-1.337794960E-1,-1.117883399E-1,2.871066704E-2
1.299442391E0,-1.331686229E-1,-1.117883399E-1,2.626720630E-2
1.301477814E0,-1.337794960E-1,-1.105666086E-1,2.687807009E-2
1.303547583E0,-1.350012124E-1,-1.087340117E-1,2.871066704E-2
1.305630467E0,-1.374446750E-1,-1.087340117E-1,2.932153270E-2
1.307652467E0,-1.374446750E-1,-1.081231460E-1,3.115412779E-2
1.309688198E0,-1.411098689E-1,-1.056796908E-1,3.054326214E-2
1.311757775E0,-1.435533315E-1,-1.081231460E-1,2.809980139E-2
1.313792660E0,-1.453859210E-1,-1.062905490E-1,2.809980139E-2
1.315909044E0,-1.508837193E-1,-1.050688252E-1,2.932153270E-2
1.317898237E0,-1.490511149E-1,-1.026253626E-1,2.504547499E-2
1.319968314E0,-1.569923609E-1,-1.032362282E-1,2.138028294E-2
1.322003698E0,-1.624901593E-1,-1.038470939E-1,1.954768784E-2
1.324073506E0,-1.649336219E-1,-1.026253626E-1,1.710422710E-2
1.326155852E0,-1.685988009E-1,-1.038470939E-1,1.466076635E-2
1.328178006E0,-1.753183305E-1,-1.050688252E-1,9.773843922E-3
1.330212775E0,-1.808161139E-1,-1.044579595E-1,4.276056774E-3
1.332282583E0,-1.850921661E-1,-1.081231460E-1,3.665191587E-3
1.334316737E0,-1.881465018E-1,-1.081231460E-1,-2.443460980E-3
1.336385929E0,-1.936442852E-1,-1.093448773E-1,-1.343903504E-2
1.338421121E0,-1.991420686E-1,-1.105666086E-1,-1.649336144E-2
1.340490544E0,-2.015855312E-1,-1.130100712E-1,-2.015855350E-2
1.342525390E0,-2.076941878E-1,-1.166752651E-1,-2.809980139E-2
1.344610198E0,-2.095267773E-1,-1.191187203E-1,-2.993239649E-2
1.346677775E0,-2.138028294E-1,-1.246165112E-1,-3.054326214E-2
1.348700890E0,-2.186897546E-1,-1.331686229E-1,-3.359758854E-2
1.351187813E0,-2.235766798E-1,-1.386664063E-1,-3.604105115E-2
1.352780044E0,-2.254092693E-1,-1.435533315E-1,-3.787364438E-2
1.354780506E0,-2.296853364E-1,-1.508837193E-1,-4.276056588E-2
1.356895775E0,-2.327396572E-1,-1.521054506E-1,-4.337143153E-2
1.358885275E0,-2.357939780E-1,-1.618792862E-1,-3.970624134E-2
1.360954390E0,-2.382374406E-1,-1.679879427E-1,-4.337143153E-2
1.362989198E0,-2.419026345E-1,-1.716531366E-1,-4.459316283E-2
1.365059083E0,-2.400700450E-1,-1.783726513E-1,-4.092797264E-2
1.367141698E0,-2.449569702E-1,-1.838704348E-1,-4.276056588E-2
1.369164544E0,-2.474004179E-1,-1.899790913E-1,-4.092797264E-2
1.371199890E0,-2.528982162E-1,-1.930334121E-1,-3.909537569E-2
1.373269160E0,-2.547308207E-1,-1.954768747E-1,-3.726277873E-2
1.375303583E0,-2.553416789E-1,-2.003637999E-1,-3.726277873E-2
1.377374198E0,-2.577851415E-1,-1.985312104E-1,-3.481931984E-2
1.379409506E0,-2.626720667E-1,-2.015855312E-1,-3.237585723E-2
1.381478967E0,-2.663372457E-1,-2.015855312E-1,-2.871066704E-2
1.383514198E0,-2.669481039E-1,-2.009746730E-1,-3.054326214E-2
1.385583852E0,-2.712241709E-1,-1.979203373E-1,-2.626720630E-2
1.387666698E0,-2.742784917E-1,-1.948660165E-1,-2.321287990E-2
1.389688467E0,-2.761110961E-1,-1.930334121E-1,-2.076941915E-2
1.391723852E0,-2.748893499E-1,-1.905899495E-1,-1.710422710E-2
1.393793275E0,-2.767219543E-1,-1.832595766E-1,-1.282817032E-2
1.395828736E0,-2.767219543E-1,-1.783726513E-1,-9.162978269E-3
1.397943775E0,-2.779437006E-1,-1.747074574E-1,-7.330383174E-3
1.399932352E0,-2.767219543E-1,-1.704314053E-1,-6.719517522E-3
1.402001544E0,-2.761110961E-1,-1.649336219E-1,-4.886921961E-3
1.404035852E0,-2.755002379E-1,-1.637118906E-1,-3.665191587E-3
1.406106621E0,-2.736676335E-1,-1.582140923E-1,3.054326167E-3
1.408188621E0,-2.693915665E-1,-1.533271819E-1,4.886921961E-3
1.410210506E0,-2.663372457E-1,-1.545489132E-1,3.665191587E-3
1.412245121E0,-2.626720667E-1,-1.557706445E-1,8.552113548E-3
1.414314967E0,-2.571742535E-1,-1.588249654E-1,6.719517522E-3
1.416350082E0,-2.498438805E-1,-1.631010175E-1,6.719517522E-3
1.418419890E0,-2.510656118E-1,-1.692096740E-1,1.099557430E-2
1.420455082E0,-2.425135076E-1,-1.777617931E-1,1.160643995E-2
1.422524698E0,-2.339613885E-1,-1.875356287E-1,1.588249579E-2
1.424560044E0,-2.321287990E-1,-1.905899495E-1,1.404990070E-2
1.426630044E0,-2.266310006E-1,-2.003637999E-1,1.771509275E-2
1.428711890E0,-2.211332172E-1,-2.083050460E-1,1.893682219E-2
1.430734236E0,-2.193006277E-1,-2.119702399E-1,1.954768784E-2
1.432768429E0,-2.138028294E-1,-2.211332172E-1,1.649336144E-2
1.434838813E0,-2.083050460E-1,-2.278527319E-1,1.893682219E-2
1.436874505E0,-2.040289938E-1,-2.290744632E-1,1.771509275E-2
1.438988852E0,-1.997529417E-1,-2.364048511E-1,2.015855350E-2
1.440986198E0,-1.936442852E-1,-2.406809032E-1,2.443460934E-2
1.443056005E0,-1.869247705E-1,-2.449569702E-1,2.565634064E-2
1.445090429E0,-1.814269722E-1,-2.449569702E-1,2.504547499E-2
1.447159775E0,-1.759291887E-1,-2.480112910E-1,3.054326214E-2
1.449241890E0,-1.692096740E-1,-2.498438805E-1,2.748893574E-2
1.451264505E0,-1.649336219E-1,-2.504547536E-1,2.993239649E-2
1.453299775E0,-1.576032341E-1,-2.535090744E-1,3.176499158E-2
1.455369621E0,-1.502728462E-1,-2.565633953E-1,2.871066704E-2
1.457404659E0,-1.459967941E-1,-2.553416789E-1,2.993239649E-2
1.459474621E0,-1.386664063E-1,-2.583959997E-1,3.237585723E-2
1.461509890E0,-1.295034289E-1,-2.596177161E-1,2.809980139E-2
1.463580236E0,-1.307251602E-1,-2.596177161E-1,3.359758854E-2
1.465616082E0,-1.209513173E-1,-2.608394623E-1,3.115412779E-2
1.467685428E0,-1.111774743E-1,-2.626720667E-1,3.115412779E-2
1.469768198E0,-1.020144969E-1,-2.657263875E-1,3.481931984E-2
1.471790505E0,-9.957103431E-2,-2.669481039E-1,3.726277873E-2
1.473825582E0,-9.040805697E-2,-2.718350291E-1,3.543018550E-2
1.475895775E0,-8.491026610E-2,-2.742784917E-1,3.970624134E-2
1.477931813E0,-8.185594529E-2,-2.767219543E-1,4.214970022E-2
1.480047505E0,-7.696902007E-2,-2.797762752E-1,4.459316283E-2
1.482036198E0,-7.086037099E-2,-2.846632004E-1,5.131268129E-2
1.484105659E0,-6.963863969E-2,-2.877175212E-1,5.558873713E-2
1.486140813E0,-6.291911751E-2,-2.877175212E-1,5.925392732E-2
1.488210774E0,-6.047565863E-2,-2.883284092E-1,6.658431143E-2
1.490293659E0,-6.047565863E-2,-2.895501256E-1,7.024950534E-2
1.492317659E0,-5.558873713E-2,-2.889392674E-1,7.880161703E-2
1.494352813E0,-5.375614017E-2,-2.858849466E-1,8.429940045E-2
1.496422851E0,-5.314527452E-2,-2.852740586E-1,9.101892263E-2
1.498458236E0,-5.070181563E-2,-2.797762752E-1,9.712757170E-2
1.500528428E0,-4.948008433E-2,-2.730567753E-1,1.026253626E-1
1.502563544E0,-4.642575979E-2,-2.645046413E-1,1.062905490E-1
1.504634274E0,-4.520402849E-2,-2.590068579E-1,1.105666086E-1
1.506669698E0,-4.092797264E-2,-2.510656118E-1,1.191187203E-1
1.508740082E0,-3.909537569E-2,-2.400700450E-1,1.233947799E-1
1.510822505E0,-3.909537569E-2,-2.339613885E-1,1.270599663E-1
1.512845005E0,-3.176499158E-2,-2.235766798E-1,1.313360333E-1
1.514880351E0,-2.993239649E-2,-2.113593817E-1,1.337794960E-1
1.516950621E0,-2.871066704E-2,-2.052507252E-1,1.374446750E-1
1.518985813E0,-2.076941915E-2,-1.936442852E-1,1.368338168E-1
1.521102082E0,-1.649336144E-2,-1.844813079E-1,1.386664063E-1
1.523090582E0,-1.527163107E-2,-1.765400618E-1,1.368338168E-1
1.525160390E0,-8.552113548E-3,-1.679879427E-1,1.386664063E-1
1.527195851E0,-1.832595794E-3,-1.594358236E-1,1.392772794E-1
1.529265774E0,2.443460980E-3,-1.539380401E-1,1.374446750E-1
1.531348274E0,6.108652335E-3,-1.502728462E-1,1.392772794E-1
1.533371274E0,1.343903504E-2,-1.435533315E-1,1.398881376E-1
1.535406736E0,1.710422710E-2,-1.386664063E-1,1.368338168E-1
1.537477005E0,2.260201424E-2,-1.368338168E-1,1.356120855E-1
1.539512390E0,2.626720630E-2,-1.337794960E-1,1.368338168E-1
1.541582313E0,3.481931984E-2,-1.337794960E-1,1.331686229E-1
1.543616890E0,3.665191308E-2,-1.325577646E-1,1.331686229E-1
1.545687697E0,4.276056588E-2,-1.295034289E-1,1.313360333E-1
1.547723120E0,4.948008433E-2,-1.313360333E-1,1.276708394E-1
1.549792543E0,5.314527452E-2,-1.319468915E-1,1.282816976E-1
1.551875274E0,5.681046844E-2,-1.337794960E-1,1.240056455E-1
1.553897313E0,6.169738993E-2,-1.343903542E-1,1.227839142E-1
1.555933005E0,6.658431143E-2,-1.380555481E-1,1.203404516E-1
1.558002313E0,7.086037099E-2,-1.417207420E-1,1.178969890E-1
1.560037851E0,7.330382615E-2,-1.435533315E-1,1.111774743E-1
1.562154236E0,8.307767659E-2,-1.453859210E-1,1.099557430E-1
1.564143428E0,8.429940045E-2,-1.484402567E-1,1.099557430E-1
1.566213390E0,8.613199741E-2,-1.527163088E-1,1.062905490E-1
1.568250351E0,9.224065393E-2,-1.521054506E-1,1.007927656E-1
1.570319082E0,9.590584040E-2,-1.539380401E-1,9.896016866E-2
1.572401313E0,9.957103431E-2,-1.551597714E-1,9.590584040E-2
1.574423043E0,1.069014147E-1,-1.563815027E-1,9.590584040E-2
1.576457851E0,1.087340117E-1,-1.576032341E-1,9.407325089E-2
1.578527428E0,1.148426682E-1,-1.539380401E-1,8.918632567E-2
1.580562005E0,1.197295859E-1,-1.557706445E-1,8.796459436E-2
1.582631697E0,1.233947799E-1,-1.563815027E-1,8.857546002E-2
1.584666582E0,1.258382350E-1,-1.563815027E-1,8.796459436E-2
1.586735659E0,1.325577646E-1,-1.521054506E-1,8.735372871E-2
1.588770082E0,1.350012124E-1,-1.478293836E-1,8.552113175E-2
1.590839774E0,1.380555481E-1,-1.490511149E-1,8.613199741E-2
1.592921813E0,1.411098689E-1,-1.441642046E-1,8.491026610E-2
1.594943389E0,1.459967941E-1,-1.392772794E-1,8.552113175E-2
1.597432082E0,1.496619880E-1,-1.356120855E-1,8.613199741E-2
1.599023543E0,1.533271819E-1,-1.337794960E-1,8.613199741E-2
1.601025389E0,1.551597714E-1,-1.270599663E-1,8.796459436E-2
1.603139120E0,1.606575549E-1,-1.252273768E-1,8.735372871E-2
1.605127236E0,1.600466967E-1,-1.197295859E-1,9.162978828E-2
1.607196736E0,1.618792862E-1,-1.172861308E-1,8.918632567E-2
1.609231774E0,1.643227488E-1,-1.123992056E-1,9.162978828E-2
1.611301428E0,1.655444801E-1,-1.075122803E-1,9.407325089E-2
1.613383851E0,1.673770845E-1,-1.038470939E-1,9.224065393E-2
1.615405851E0,1.673770845E-1,-1.020144969E-1,9.590584040E-2
1.617440736E0,1.698205322E-1,-9.773843735E-2,9.590584040E-2
1.619510736E0,1.704314053E-1,-9.712757170E-2,9.346238524E-2
1.621545851E0,1.679879427E-1,-9.346238524E-2,1.001819000E-1
1.623615736E0,1.667662114E-1,-9.590584040E-2,1.001819000E-1
1.625651197E0,1.673770845E-1,-9.407325089E-2,9.712757170E-2
1.627720851E0,1.667662114E-1,-9.346238524E-2,9.957103431E-2
1.629756312E0,1.643227488E-1,-9.468411654E-2,9.896016866E-2
1.631825235E0,1.649336219E-1,-9.162978828E-2,9.896016866E-2
1.633907812E0,1.606575549E-1,-9.346238524E-2,1.007927656E-1
1.635930082E0,1.588249654E-1,-9.407325089E-2,1.001819000E-1
1.637965428E0,1.594358236E-1,-9.346238524E-2,1.001819000E-1
1.640034697E0,1.606575549E-1,-8.857546002E-2,9.590584040E-2
1.642070197E0,1.563815027E-1,-8.857546002E-2,9.590584040E-2
1.644187235E0,1.557706445E-1,-8.674286306E-2,9.407325089E-2
1.646175928E0,1.545489132E-1,-8.185594529E-2,9.101892263E-2
1.648245735E0,1.508837193E-1,-8.185594529E-2,8.857546002E-2
1.650281082E0,1.502728462E-1,-7.941248268E-2,8.918632567E-2
1.652350197E0,1.502728462E-1,-7.574728876E-2,8.613199741E-2
1.654431928E0,1.459967941E-1,-6.902777404E-2,8.185594529E-2
1.656454389E0,1.459967941E-1,-7.024950534E-2,8.307767659E-2
1.658489505E0,1.441642046E-1,-6.536258012E-2,7.635815442E-2
1.660559505E0,1.435533315E-1,-6.047565863E-2,7.635815442E-2
1.662594543E0,1.429424733E-1,-5.742133409E-2,7.452555746E-2
1.664664928E0,1.404990107E-1,-5.436700583E-2,7.086037099E-2
1.666700274E0,1.374446750E-1,-5.009094998E-2,6.780604273E-2
1.668770081E0,1.380555481E-1,-4.581489414E-2,6.536258012E-2
1.670805235E0,1.374446750E-1,-4.214970022E-2,6.536258012E-2
1.672875351E0,1.331686229E-1,-3.787364438E-2,6.658431143E-2
1.674957966E0,1.325577646E-1,-3.298672289E-2,6.230825558E-2
1.676981466E0,1.313360333E-1,-3.054326214E-2,6.108652428E-2
1.679018466E0,1.270599663E-1,-2.748893574E-2,5.925392732E-2
1.681086928E0,1.301143020E-1,-2.076941915E-2,5.925392732E-2
1.683122620E0,1.276708394E-1,-2.076941915E-2,5.742133409E-2
1.685238889E0,1.264491081E-1,-1.771509275E-2,5.558873713E-2
1.687230774E0,1.240056455E-1,-1.404990070E-2,5.619960278E-2
1.689300620E0,1.240056455E-1,-9.773843922E-3,5.314527452E-2
1.691335889E0,1.233947799E-1,-8.552113548E-3,5.681046844E-2
1.693405966E0,1.209513173E-1,-6.719517522E-3,5.375614017E-2
1.695487466E0,1.215621829E-1,-5.497787148E-3,5.314527452E-2
1.697509774E0,1.209513173E-1,-5.497787148E-3,5.436700583E-2
1.699544158E0,1.197295859E-1,-4.276056774E-3,5.436700583E-2
1.701613928E0,1.191187203E-1,-4.886921961E-3,5.497787148E-2
1.703649274E0,1.197295859E-1,-3.054326167E-3,5.375614017E-2
1.705717966E0,1.203404516E-1,-2.443460980E-3,5.558873713E-2
1.707753043E0,1.197295859E-1,-1.832595794E-3,5.314527452E-2
1.709822543E0,1.191187203E-1,-2.443460980E-3,5.436700583E-2
1.711858081E0,1.197295859E-1,-3.665191587E-3,5.803219974E-2
1.713927427E0,1.191187203E-1,-4.276056774E-3,5.375614017E-2
1.716009851E0,1.166752651E-1,-4.276056774E-3,5.497787148E-2
1.718031581E0,1.178969890E-1,-5.497787148E-3,5.864306539E-2
1.720067158E0,1.178969890E-1,-7.941247895E-3,5.253441259E-2
1.722136889E0,1.166752651E-1,-7.330383174E-3,5.375614017E-2
1.724172158E0,1.166752651E-1,-6.108652335E-3,5.681046844E-2
1.726288235E0,1.148426682E-1,-6.108652335E-3,5.497787148E-2
1.728277043E0,1.142318025E-1,-6.719517522E-3,5.192354694E-2
1.730347235E0,1.160643995E-1,-6.719517522E-3,5.253441259E-2
1.732382235E0,1.154535338E-1,-7.330383174E-3,5.314527452E-2
1.734451658E0,1.148426682E-1,-7.941247895E-3,5.131268129E-2
1.736534735E0,1.166752651E-1,-8.552113548E-3,5.131268129E-2
1.738557043E0,1.148426682E-1,-7.330383174E-3,5.314527452E-2
1.740592774E0,1.142318025E-1,-4.886921961E-3,5.070181563E-2
1.742662697E0,1.148426682E-1,-6.719517522E-3,5.192354694E-2
1.744698004E0,1.130100712E-1,-5.497787148E-3,5.375614017E-2
1.746767966E0,1.123992056E-1,-3.054326167E-3,4.948008433E-2
1.748803043E0,1.111774743E-1,-4.886921961E-3,5.497787148E-2
1.750873350E0,1.099557430E-1,-3.054326167E-3,5.192354694E-2
1.752909427E0,1.099557430E-1,-3.665191587E-3,5.253441259E-2
1.754994120E0,1.075122803E-1,-3.665191587E-3,5.070181563E-2
1.757061812E0,1.069014147E-1,-2.443460980E-3,5.314527452E-2
1.759084081E0,1.050688252E-1,-2.443460980E-3,4.703662544E-2
1.761119735E0,1.044579595E-1,-2.443460980E-3,5.131268129E-2
1.763189812E0,9.957103431E-2,-1.832595794E-3,5.436700583E-2
1.765225120E0,1.007927656E-1,-6.108652451E-4,4.825835302E-2
1.767341120E0,9.651670605E-2,6.108652451E-4,5.375614017E-2
1.769331158E0,9.529497474E-2,-1.832595794E-3,5.681046844E-2
1.771399696E0,9.468411654E-2,3.054326167E-3,5.070181563E-2
1.773435658E0,9.040805697E-2,3.054326167E-3,5.131268129E-2
1.775505504E0,9.040805697E-2,3.054326167E-3,5.131268129E-2
1.777588312E0,8.735372871E-2,2.443460980E-3,5.375614017E-2
1.779610812E0,8.674286306E-2,3.665191587E-3,5.070181563E-2
1.781645966E0,8.124507964E-2,4.276056774E-3,5.131268129E-2
1.783715273E0,8.307767659E-2,4.886921961E-3,5.009094998E-2
1.785750543E0,8.063421398E-2,5.497787148E-3,4.948008433E-2
1.787819927E0,7.941248268E-2,5.497787148E-3,4.948008433E-2
1.789855966E0,7.819075137E-2,6.108652335E-3,5.131268129E-2
1.791924696E0,7.819075137E-2,4.886921961E-3,5.070181563E-2
1.793959889E0,7.819075137E-2,6.108652335E-3,5.131268129E-2
1.796029927E0,7.941248268E-2,5.497787148E-3,4.825835302E-2
1.798112235E0,7.819075137E-2,7.330383174E-3,5.436700583E-2
1.800134427E0,8.124507964E-2,7.941247895E-3,5.131268129E-2
1.802169619E0,7.819075137E-2,9.162978269E-3,5.009094998E-2
1.804239004E0,8.368854225E-2,9.162978269E-3,5.253441259E-2
1.806273312E0,8.185594529E-2,7.330383174E-3,5.192354694E-2
1.808387927E0,8.735372871E-2,1.099557430E-2,5.009094998E-2
1.810375966E0,8.735372871E-2,9.773843922E-3,5.497787148E-2
1.812445389E0,9.101892263E-2,9.773843922E-3,5.192354694E-2
1.814479389E0,9.285151958E-2,9.162978269E-3,5.253441259E-2
1.816548196E0,9.285151958E-2,9.773843922E-3,5.314527452E-2
1.818630581E0,9.651670605E-2,9.162978269E-3,5.375614017E-2
1.820651504E0,9.957103431E-2,9.162978269E-3,5.558873713E-2
1.822686235E0,9.712757170E-2,7.941247895E-3,5.681046844E-2
1.824754273E0,1.020144969E-1,5.497787148E-3,5.314527452E-2
1.826789658E0,1.026253626E-1,1.038470957E-2,5.497787148E-2
1.828858619E0,1.050688252E-1,7.941247895E-3,5.742133409E-2
1.830893004E0,1.062905490E-1,8.552113548E-3,5.314527452E-2
1.832962042E0,1.081231460E-1,9.162978269E-3,5.131268129E-2
1.834996812E0,1.062905490E-1,8.552113548E-3,5.375614017E-2
1.837066235E0,1.087340117E-1,7.330383174E-3,5.070181563E-2
1.839148158E0,1.069014147E-1,5.497787148E-3,5.131268129E-2
1.841170081E0,1.075122803E-1,6.108652335E-3,5.070181563E-2
1.843661581E0,1.050688252E-1,5.497787148E-3,4.764748737E-2
1.845253427E0,1.069014147E-1,4.886921961E-3,4.825835302E-2
1.847254196E0,1.056796908E-1,3.054326167E-3,4.337143153E-2
1.849370312E0,1.075122803E-1,4.276056774E-3,3.970624134E-2
1.851358504E0,1.044579595E-1,3.054326167E-3,3.848451003E-2
1.853427965E0,1.038470939E-1,1.221730490E-3,3.787364438E-2
1.855462388E0,1.026253626E-1,3.665191587E-3,3.543018550E-2
1.857532427E0,1.020144969E-1,-1.221730490E-3,3.726277873E-2
1.859614735E0,1.020144969E-1,-6.108652451E-4,3.298672289E-2
1.861636773E0,9.896016866E-2,-2.443460980E-3,3.298672289E-2
1.863671965E0,9.957103431E-2,-4.276056774E-3,3.481931984E-2
1.865742158E0,9.712757170E-2,-4.276056774E-3,2.993239649E-2
1.867777235E0,9.590584040E-2,-6.108652335E-3,2.993239649E-2
1.869846927E0,9.773843735E-2,-4.886921961E-3,2.748893574E-2
1.871881388E0,9.590584040E-2,-6.108652335E-3,2.443460934E-2
1.873951196E0,9.468411654E-2,-6.719517522E-3,2.138028294E-2
1.875986773E0,9.162978828E-2,-6.719517522E-3,2.626720630E-2
1.878056273E0,9.285151958E-2,-4.276056774E-3,2.076941915E-2
1.880138119E0,9.162978828E-2,-4.276056774E-3,2.015855350E-2
1.882160235E0,8.796459436E-2,-4.886921961E-3,2.321287990E-2
1.884195158E0,8.918632567E-2,-5.497787148E-3,1.893682219E-2
1.886264888E0,8.735372871E-2,-2.443460980E-3,2.138028294E-2
1.888300004E0,8.735372871E-2,-3.665191587E-3,2.443460934E-2
1.890415734E0,8.735372871E-2,-4.276056774E-3,2.199114859E-2
1.892404196E0,8.796459436E-2,-3.054326167E-3,2.382374369E-2
1.894473542E0,8.613199741E-2,-4.276056774E-3,2.260201424E-2
1.896508311E0,8.674286306E-2,-3.665191587E-3,2.382374369E-2
1.898577811E0,8.552113175E-2,-3.054326167E-3,2.504547499E-2
1.900660465E0,8.613199741E-2,-4.276056774E-3,2.565634064E-2
1.902682773E0,8.735372871E-2,-3.665191587E-3,2.321287990E-2
1.904717311E0,8.613199741E-2,-4.886921961E-3,2.382374369E-2
1.906786388E0,8.429940045E-2,-4.276056774E-3,2.748893574E-2
1.908821542E0,8.552113175E-2,-4.886921961E-3,2.687807009E-2
1.910891042E0,8.552113175E-2,-4.886921961E-3,2.687807009E-2
1.912925773E0,8.246681094E-2,-6.108652335E-3,2.687807009E-2
1.914994696E0,8.429940045E-2,-4.276056774E-3,2.932153270E-2
1.917031004E0,8.613199741E-2,-6.108652335E-3,3.115412779E-2
1.919100311E0,8.491026610E-2,-6.719517522E-3,3.054326214E-2
1.921182927E0,8.368854225E-2,-7.941247895E-3,3.481931984E-2
1.923205234E0,8.491026610E-2,-9.162978269E-3,3.237585723E-2
1.925240234E0,8.491026610E-2,-9.162978269E-3,3.420845419E-2
1.927310657E0,8.674286306E-2,-9.773843922E-3,3.481931984E-2
1.929346196E0,8.552113175E-2,-1.160643995E-2,3.665191308E-2
1.931462388E0,8.674286306E-2,-1.099557430E-2,3.298672289E-2
1.933459927E0,8.857546002E-2,-1.160643995E-2,3.604105115E-2
1.935529850E0,8.613199741E-2,-1.099557430E-2,3.604105115E-2
1.937564850E0,8.552113175E-2,-1.466076635E-2,3.604105115E-2
1.939634773E0,8.552113175E-2,-1.527163107E-2,3.726277873E-2
1.941717811E0,8.796459436E-2,-1.649336144E-2,3.787364438E-2
1.943740196E0,8.918632567E-2,-1.710422710E-2,3.726277873E-2
1.945775811E0,8.918632567E-2,-1.832595654E-2,3.420845419E-2
1.947846350E0,9.346238524E-2,-1.832595654E-2,3.420845419E-2
1.949881734E0,9.346238524E-2,-2.015855350E-2,3.298672289E-2
1.951951965E0,9.590584040E-2,-1.954768784E-2,3.359758854E-2
1.953987157E0,9.651670605E-2,-2.382374369E-2,3.543018550E-2
1.956057427E0,9.712757170E-2,-2.138028294E-2,3.543018550E-2
1.958093157E0,9.651670605E-2,-2.321287990E-2,3.176499158E-2
1.960163196E0,1.001819000E-1,-2.443460934E-2,3.420845419E-2
1.962245888E0,1.020144969E-1,-2.443460934E-2,3.115412779E-2
1.964269042E0,1.056796908E-1,-2.382374369E-2,3.054326214E-2
1.966304350E0,1.087340117E-1,-2.748893574E-2,3.237585723E-2
1.968374542E0,1.062905490E-1,-2.809980139E-2,3.298672289E-2
1.970411196E0,1.093448773E-1,-2.871066704E-2,3.298672289E-2
1.972526580E0,1.136209369E-1,-2.932153270E-2,3.298672289E-2
1.974516273E0,1.136209369E-1,-3.054326214E-2,3.054326214E-2
1.976586657E0,1.148426682E-1,-3.054326214E-2,3.176499158E-2
1.978622042E0,1.148426682E-1,-3.115412779E-2,3.298672289E-2
1.980692119E0,1.160643995E-1,-3.237585723E-2,2.993239649E-2
1.982775196E0,1.172861308E-1,-3.359758854E-2,2.993239649E-2
1.984797926E0,1.185078546E-1,-3.237585723E-2,2.932153270E-2
1.986833426E0,1.215621829E-1,-3.420845419E-2,3.054326214E-2
1.988903234E0,1.185078546E-1,-3.237585723E-2,2.748893574E-2
1.990938849E0,1.215621829E-1,-3.481931984E-2,2.993239649E-2
1.993008426E0,1.233947799E-1,-3.237585723E-2,2.932153270E-2
1.995043388E0,1.240056455E-1,-2.993239649E-2,2.748893574E-2
1.997112888E0,1.227839142E-1,-2.932153270E-2,2.809980139E-2
1.999148080E0,1.252273768E-1,-3.054326214E-2,2.687807009E-2
2.001217734E0,1.252273768E-1,-2.993239649E-2,2.565634064E-2
2.003300619E0,1.264491081E-1,-2.993239649E-2,2.199114859E-2
2.005323003E0,1.270599663E-1,-2.871066704E-2,2.138028294E-2
2.007357542E0,1.270599663E-1,-2.626720630E-2,2.199114859E-2
2.009427465E0,1.270599663E-1,-2.504547499E-2,2.015855350E-2
2.011463811E0,1.276708394E-1,-2.687807009E-2,1.954768784E-2
2.013578811E0,1.252273768E-1,-2.321287990E-2,1.588249579E-2
2.015567849E0,1.246165112E-1,-2.626720630E-2,1.771509275E-2
2.017637849E0,1.252273768E-1,-2.504547499E-2,1.466076635E-2
2.019673772E0,1.270599663E-1,-2.382374369E-2,1.099557430E-2
2.021742965E0,1.227839142E-1,-2.321287990E-2,1.404990070E-2
2.023825542E0,1.258382350E-1,-2.443460934E-2,1.160643995E-2
2.025847157E0,1.227839142E-1,-2.443460934E-2,9.773843922E-3
2.027881888E0,1.215621829E-1,-2.504547499E-2,6.719517522E-3
2.029951542E0,1.240056455E-1,-2.321287990E-2,1.221730490E-3
2.031985926E0,1.197295859E-1,-2.504547499E-2,7.330383174E-3
2.034054926E0,1.172861308E-1,-2.504547499E-2,5.497787148E-3
2.036090080E0,1.197295859E-1,-2.382374369E-2,2.443460980E-3
2.038159349E0,1.160643995E-1,-2.626720630E-2,4.276056774E-3
2.040193888E0,1.123992056E-1,-2.626720630E-2,4.276056774E-3
2.042263542E0,1.136209369E-1,-2.748893574E-2,2.443460980E-3
2.044346465E0,1.117883399E-1,-2.993239649E-2,1.221730490E-3
2.046368042E0,1.099557430E-1,-2.871066704E-2,3.665191587E-3
2.048403580E0,1.087340117E-1,-2.871066704E-2,2.443460980E-3
2.050472734E0,1.087340117E-1,-2.932153270E-2,2.443460980E-3
2.052508080E0,1.056796908E-1,-3.054326214E-2,3.665191587E-3
2.054623772E0,1.026253626E-1,-2.871066704E-2,-1.832595794E-3
2.056611503E0,1.020144969E-1,-2.809980139E-2,4.276056774E-3
2.058681849E0,1.038470939E-1,-2.748893574E-2,2.443460980E-3
2.060717042E0,9.712757170E-2,-2.687807009E-2,4.886921961E-3
2.062786503E0,9.957103431E-2,-2.443460934E-2,3.665191587E-3
2.064869195E0,9.896016866E-2,-2.260201424E-2,4.276056774E-3
2.066891195E0,9.712757170E-2,-2.199114859E-2,6.108652335E-3
2.068927272E0,9.896016866E-2,-2.138028294E-2,4.276056774E-3
2.070997965E0,9.773843735E-2,-1.832595654E-2,4.276056774E-3
2.073033503E0,9.407325089E-2,-1.832595654E-2,8.552113548E-3
2.075103272E0,9.529497474E-2,-1.588249579E-2,9.162978269E-3
2.077138888E0,9.590584040E-2,-1.404990070E-2,6.108652335E-3
2.079208541E0,9.651670605E-2,-1.221730467E-2,7.330383174E-3
2.081244118E0,9.346238524E-2,-1.160643995E-2,9.773843922E-3
2.083313772E0,9.590584040E-2,-7.941247895E-3,5.497787148E-3
2.085396541E0,9.773843735E-2,-4.886921961E-3,6.719517522E-3
2.087418965E0,9.590584040E-2,-3.665191587E-3,4.886921961E-3
2.089907734E0,9.468411654E-2,-4.276056774E-3,7.941247895E-3
2.091499426E0,9.529497474E-2,-6.108652451E-4,7.330383174E-3
2.093499772E0,9.651670605E-2,2.443460980E-3,6.108652335E-3
2.095615811E0,9.529497474E-2,6.108652451E-4,3.665191587E-3
2.097605003E0,9.407325089E-2,1.221730490E-3,6.719517522E-3
2.099675503E0,9.407325089E-2,0.000000000E0,2.443460980E-3
2.101710657E0,9.529497474E-2,1.832595794E-3,1.221730490E-3
2.103779811E0,9.468411654E-2,1.832595794E-3,2.443460980E-3
2.105862964E0,9.101892263E-2,1.832595794E-3,1.221730490E-3
2.107885118E0,9.285151958E-2,1.221730490E-3,-2.443460980E-3
2.109919926E0,9.346238524E-2,2.443460980E-3,-6.108652451E-4
2.111989887E0,9.101892263E-2,6.108652451E-4,-1.221730490E-3
2.114025157E0,9.040805697E-2,6.108652451E-4,-3.665191587E-3
2.116094387E0,9.162978828E-2,6.108652451E-4,-3.665191587E-3
2.118129926E0,8.979719132E-2,1.832595794E-3,-3.054326167E-3
2.120199387E0,8.857546002E-2,-1.832595794E-3,-4.276056774E-3
2.122235926E0,8.857546002E-2,6.108652451E-4,-4.886921961E-3
2.124305541E0,8.857546002E-2,1.221730490E-3,-5.497787148E-3
2.126388580E0,8.918632567E-2,6.108652451E-4,-6.719517522E-3
2.128411387E0,8.857546002E-2,-1.221730490E-3,-3.665191587E-3
2.130446849E0,9.040805697E-2,1.221730490E-3,-3.665191587E-3
2.132516926E0,9.101892263E-2,-1.221730490E-3,-6.108652335E-3
2.134553310E0,8.918632567E-2,0.000000000E0,-4.276056774E-3
2.136669195E0,9.224065393E-2,-1.221730490E-3,-2.443460980E-3
2.138658272E0,9.101892263E-2,-3.054326167E-3,-6.108652451E-4
2.140728041E0,9.285151958E-2,-1.221730490E-3,3.665191587E-3
2.142763195E0,9.224065393E-2,-2.443460980E-3,1.221730490E-3
2.144833618E0,9.346238524E-2,-3.665191587E-3,1.221730490E-3
2.146916041E0,9.285151958E-2,-4.276056774E-3,4.276056774E-3
2.148938080E0,9.651670605E-2,-3.054326167E-3,3.054326167E-3
2.150973618E0,9.529497474E-2,-3.665191587E-3,2.443460980E-3
2.153043580E0,9.285151958E-2,-6.108652335E-3,4.276056774E-3
2.155078964E0,9.285151958E-2,-5.497787148E-3,4.276056774E-3
2.157148503E0,8.979719132E-2,-7.330383174E-3,5.497787148E-3
2.159183810E0,9.040805697E-2,-5.497787148E-3,3.665191587E-3
2.161253580E0,8.979719132E-2,-4.886921961E-3,2.443460980E-3
2.163288964E0,9.101892263E-2,-6.719517522E-3,0.000000000E0
2.165372772E0,8.613199741E-2,-5.497787148E-3,-6.108652451E-4
2.167440657E0,8.735372871E-2,-5.497787148E-3,-4.886921961E-3
2.169463349E0,8.613199741E-2,-3.665191587E-3,-2.443460980E-3
2.171498772E0,8.368854225E-2,-4.276056774E-3,-3.665191587E-3
2.173568926E0,8.063421398E-2,-1.832595794E-3,-4.886921961E-3
2.175603887E0,7.941248268E-2,-6.108652451E-4,-8.552113548E-3
2.177720387E0,7.696902007E-2,1.832595794E-3,-1.282817032E-2
2.179711656E0,7.330382615E-2,4.276056774E-3,-1.343903504E-2
2.181781349E0,7.391469181E-2,7.330383174E-3,-1.404990070E-2
2.183817156E0,6.597344577E-2,1.099557430E-2,-1.649336144E-2
2.185887387E0,6.597344577E-2,1.282817032E-2,-1.832595654E-2
2.187969195E0,6.414084882E-2,1.527163107E-2,-1.954768784E-2
2.189991656E0,6.230825558E-2,1.954768784E-2,-2.260201424E-2
2.192027387E0,5.803219974E-2,2.382374369E-2,-1.832595654E-2
2.194096656E0,5.803219974E-2,2.687807009E-2,-2.260201424E-2
2.196131426E0,5.681046844E-2,2.932153270E-2,-2.565634064E-2
2.198201349E0,5.070181563E-2,3.237585723E-2,-2.443460934E-2
2.200236079E0,4.948008433E-2,3.420845419E-2,-2.504547499E-2
2.202305772E0,4.886921868E-2,3.787364438E-2,-2.687807009E-2
2.204340772E0,4.276056588E-2,3.909537569E-2,-2.321287990E-2
2.206411118E0,4.153883830E-2,4.092797264E-2,-2.382374369E-2
2.208493464E0,3.909537569E-2,4.276056588E-2,-2.565634064E-2
2.210515464E0,3.787364438E-2,4.459316283E-2,-2.321287990E-2
2.212550502E0,3.604105115E-2,4.581489414E-2,-2.260201424E-2
2.214620118E0,3.298672289E-2,4.398229718E-2,-2.199114859E-2
2.216655195E0,3.237585723E-2,4.398229718E-2,-2.199114859E-2
2.218771349E0,2.993239649E-2,4.581489414E-2,-1.832595654E-2
2.220760118E0,2.932153270E-2,4.337143153E-2,-1.771509275E-2
2.222828002E0,2.932153270E-2,4.398229718E-2,-1.527163107E-2
2.224864118E0,2.748893574E-2,4.520402849E-2,-1.710422710E-2
2.226933618E0,2.504547499E-2,4.520402849E-2,-1.588249579E-2
2.229016579E0,2.626720630E-2,4.520402849E-2,-1.343903504E-2
2.231038541E0,2.260201424E-2,4.398229718E-2,-1.282817032E-2
2.233073810E0,2.504547499E-2,4.642575979E-2,-1.343903504E-2
2.235143156E0,2.321287990E-2,4.520402849E-2,-1.404990070E-2
2.237178464E0,2.382374369E-2,4.703662544E-2,-1.221730467E-2
2.239248041E0,2.321287990E-2,4.642575979E-2,-1.221730467E-2
2.241282887E0,1.954768784E-2,4.764748737E-2,-6.108652335E-3
2.243352695E0,2.076941915E-2,4.581489414E-2,-7.330383174E-3
2.245387772E0,2.015855350E-2,4.520402849E-2,-6.719517522E-3
2.247457733E0,2.382374369E-2,4.703662544E-2,-8.552113548E-3
2.249540041E0,2.138028294E-2,4.703662544E-2,-9.773843922E-3
2.251562733E0,2.076941915E-2,4.703662544E-2,-7.941247895E-3
2.253597579E0,2.138028294E-2,4.703662544E-2,-6.719517522E-3
2.255666848E0,2.015855350E-2,4.825835302E-2,-4.886921961E-3
2.257701579E0,2.199114859E-2,4.764748737E-2,-5.497787148E-3
2.259817810E0,2.076941915E-2,4.825835302E-2,-3.054326167E-3
2.261806541E0,2.015855350E-2,4.886921868E-2,-5.497787148E-3
2.263876541E0,2.015855350E-2,5.009094998E-2,-2.443460980E-3
2.265911464E0,2.015855350E-2,5.253441259E-2,-3.054326167E-3
2.267981618E0,1.893682219E-2,5.314527452E-2,-3.054326167E-3
2.270063733E0,1.893682219E-2,5.436700583E-2,-3.665191587E-3
2.272085848E0,1.832595654E-2,5.619960278E-2,-2.443460980E-3
2.274120502E0,1.832595654E-2,5.497787148E-2,-1.221730490E-3
2.276190002E0,1.832595654E-2,5.619960278E-2,-5.497787148E-3
2.278224656E0,1.710422710E-2,5.803219974E-2,0.000000000E0
2.280294041E0,1.649336144E-2,5.803219974E-2,-3.054326167E-3
2.282328618E0,1.710422710E-2,5.925392732E-2,-3.054326167E-3
2.284397925E0,1.343903504E-2,5.925392732E-2,0.000000000E0
2.286432887E0,1.282817032E-2,5.803219974E-2,2.443460980E-3
2.288503156E0,1.160643995E-2,5.742133409E-2,-1.832595794E-3
2.290584195E0,1.038470957E-2,5.742133409E-2,3.054326167E-3
2.292606502E0,9.162978269E-3,5.742133409E-2,6.108652451E-4
2.294640925E0,8.552113548E-3,5.925392732E-2,-2.443460980E-3
2.296709848E0,6.108652335E-3,5.619960278E-2,1.832595794E-3
2.298744387E0,1.832595794E-3,5.619960278E-2,3.054326167E-3
2.300859541E0,3.054326167E-3,5.436700583E-2,-6.108652451E-4
2.302847887E0,-6.108652451E-4,5.375614017E-2,6.108652451E-4
2.304917156E0,-3.665191587E-3,4.948008433E-2,1.832595794E-3
2.306951233E0,-6.108652335E-3,4.825835302E-2,1.221730490E-3
2.309021310E0,-6.108652335E-3,4.825835302E-2,1.221730490E-3
2.311103579E0,-8.552113548E-3,4.459316283E-2,6.108652451E-4
2.313126233E0,-1.282817032E-2,4.276056588E-2,1.221730490E-3
2.315160694E0,-1.527163107E-2,4.214970022E-2,6.108652451E-4
2.317230079E0,-1.649336144E-2,3.970624134E-2,1.832595794E-3
2.319264502E0,-2.138028294E-2,4.153883830E-2,6.108652451E-4
2.321333387E0,-2.382374369E-2,3.848451003E-2,3.054326167E-3
2.323368041E0,-2.443460934E-2,3.665191308E-2,0.000000000E0
2.325437502E0,-2.809980139E-2,3.665191308E-2,-6.108652451E-4
2.327472617E0,-2.871066704E-2,3.604105115E-2,-3.054326167E-3
2.329541617E0,-3.054326214E-2,3.604105115E-2,-4.276056774E-3
2.331623233E0,-3.176499158E-2,3.665191308E-2,-1.221730490E-3
2.333644348E0,-3.237585723E-2,3.481931984E-2,-4.276056774E-3
2.336129579E0,-3.481931984E-2,3.481931984E-2,-7.330383174E-3
2.337720964E0,-3.665191308E-2,3.420845419E-2,-9.162978269E-3
2.339720387E0,-3.543018550E-2,3.359758854E-2,-7.941247895E-3
2.341835925E0,-3.604105115E-2,3.543018550E-2,-7.941247895E-3
2.343824348E0,-3.787364438E-2,3.359758854E-2,-1.099557430E-2
2.345892656E0,-3.848451003E-2,3.420845419E-2,-1.160643995E-2
2.347927425E0,-3.848451003E-2,3.665191308E-2,-1.221730467E-2
2.349996887E0,-4.092797264E-2,3.359758854E-2,-1.160643995E-2
2.352078617E0,-3.848451003E-2,3.481931984E-2,-1.404990070E-2
2.354100233E0,-4.153883830E-2,3.237585723E-2,-1.527163107E-2
2.356135463E0,-4.337143153E-2,3.237585723E-2,-1.527163107E-2
2.358205156E0,-4.459316283E-2,3.176499158E-2,-1.527163107E-2
2.360240117E0,-4.581489414E-2,2.993239649E-2,-1.282817032E-2
2.362310540E0,-4.459316283E-2,2.993239649E-2,-1.771509275E-2
2.364345887E0,-4.459316283E-2,2.626720630E-2,-1.343903504E-2
2.366416002E0,-4.459316283E-2,2.565634064E-2,-1.893682219E-2
2.368450848E0,-4.581489414E-2,2.687807009E-2,-2.015855350E-2
2.370520925E0,-4.703662544E-2,2.382374369E-2,-1.771509275E-2
2.372603117E0,-5.009094998E-2,2.199114859E-2,-1.954768784E-2
2.374624848E0,-4.581489414E-2,2.138028294E-2,-1.893682219E-2
2.376661617E0,-4.703662544E-2,2.076941915E-2,-1.893682219E-2
2.378730502E0,-5.009094998E-2,1.954768784E-2,-2.076941915E-2
2.380766117E0,-5.192354694E-2,1.954768784E-2,-1.893682219E-2
2.382882540E0,-5.131268129E-2,2.076941915E-2,-2.015855350E-2
2.384871733E0,-5.192354694E-2,2.076941915E-2,-1.893682219E-2
2.386941425E0,-5.314527452E-2,2.015855350E-2,-2.260201424E-2
2.388976925E0,-5.436700583E-2,2.015855350E-2,-2.076941915E-2
2.391046656E0,-5.681046844E-2,2.260201424E-2,-2.382374369E-2
2.393129271E0,-5.619960278E-2,2.443460934E-2,-2.443460934E-2
2.395151656E0,-5.986479297E-2,2.443460934E-2,-2.260201424E-2
2.397187386E0,-5.925392732E-2,2.687807009E-2,-2.504547499E-2
2.399257425E0,-6.108652428E-2,2.871066704E-2,-2.565634064E-2
2.401292886E0,-6.169738993E-2,3.054326214E-2,-2.565634064E-2
2.403363117E0,-6.169738993E-2,3.298672289E-2,-2.565634064E-2
2.405398117E0,-6.169738993E-2,3.359758854E-2,-2.871066704E-2
2.407468386E0,-6.352998316E-2,3.665191308E-2,-2.748893574E-2
2.409503502E0,-6.658431143E-2,3.726277873E-2,-2.809980139E-2
2.411574117E0,-6.658431143E-2,3.970624134E-2,-2.993239649E-2
2.413656079E0,-6.963863969E-2,4.092797264E-2,-2.932153270E-2
2.415678771E0,-6.902777404E-2,4.337143153E-2,-3.176499158E-2
2.417713656E0,-7.147123665E-2,4.459316283E-2,-3.237585723E-2
2.419782732E0,-7.208210230E-2,4.520402849E-2,-3.054326214E-2
2.421818156E0,-7.086037099E-2,4.581489414E-2,-2.993239649E-2
2.423933579E0,-7.391469181E-2,4.764748737E-2,-3.237585723E-2
2.425931386E0,-7.269296050E-2,4.825835302E-2,-3.237585723E-2
2.428000579E0,-7.147123665E-2,4.886921868E-2,-3.420845419E-2
2.430036040E0,-7.574728876E-2,4.825835302E-2,-3.481931984E-2
2.432104694E0,-7.452555746E-2,4.886921868E-2,-3.298672289E-2
2.434186771E0,-7.635815442E-2,4.886921868E-2,-3.604105115E-2
2.436208348E0,-7.635815442E-2,4.764748737E-2,-3.543018550E-2
2.438242655E0,-7.941248268E-2,4.642575979E-2,-3.298672289E-2
2.440312155E0,-7.941248268E-2,4.703662544E-2,-3.604105115E-2
2.442346617E0,-7.819075137E-2,4.581489414E-2,-3.787364438E-2
2.444416309E0,-7.635815442E-2,4.459316283E-2,-3.787364438E-2
2.446451117E0,-7.880161703E-2,4.459316283E-2,-3.665191308E-2
2.448520232E0,-8.124507964E-2,4.398229718E-2,-3.726277873E-2
2.450555309E0,-7.880161703E-2,4.398229718E-2,-3.970624134E-2
2.452623425E0,-8.185594529E-2,4.214970022E-2,-3.909537569E-2
2.454704848E0,-7.819075137E-2,4.276056588E-2,-3.909537569E-2
2.456726809E0,-8.124507964E-2,3.970624134E-2,-4.153883830E-2
2.458761425E0,-8.124507964E-2,4.153883830E-2,-4.459316283E-2
2.460830886E0,-7.819075137E-2,4.031710699E-2,-4.337143153E-2
2.462865732E0,-8.063421398E-2,3.909537569E-2,-4.459316283E-2
2.464981232E0,-7.880161703E-2,3.848451003E-2,-4.581489414E-2
2.466970540E0,-8.002334833E-2,3.848451003E-2,-4.276056588E-2
2.469040040E0,-8.063421398E-2,3.726277873E-2,-4.276056588E-2
2.471074463E0,-8.124507964E-2,3.848451003E-2,-4.581489414E-2
2.473144655E0,-8.185594529E-2,3.726277873E-2,-4.825835302E-2
2.475227886E0,-7.819075137E-2,3.787364438E-2,-4.825835302E-2
2.477249771E0,-8.246681094E-2,3.481931984E-2,-4.520402849E-2
2.479285809E0,-8.002334833E-2,3.665191308E-2,-4.703662544E-2
2.481355001E0,-8.491026610E-2,3.481931984E-2,-4.581489414E-2
2.483390232E0,-8.429940045E-2,3.298672289E-2,-4.764748737E-2
2.485460848E0,-8.552113175E-2,3.237585723E-2,-4.581489414E-2
2.487496040E0,-8.674286306E-2,3.298672289E-2,-4.764748737E-2
2.489565925E0,-8.674286306E-2,3.237585723E-2,-4.825835302E-2
2.491601540E0,-8.979719132E-2,2.871066704E-2,-4.703662544E-2
2.493671501E0,-8.979719132E-2,2.871066704E-2,-4.948008433E-2
2.495754078E0,-9.040805697E-2,2.809980139E-2,-5.131268129E-2
2.497776463E0,-9.346238524E-2,2.504547499E-2,-5.314527452E-2
2.499812424E0,-9.407325089E-2,2.626720630E-2,-5.192354694E-2
2.501881386E0,-9.590584040E-2,2.260201424E-2,-5.192354694E-2
2.503916732E0,-9.651670605E-2,2.138028294E-2,-5.375614017E-2
2.506032501E0,-9.834930301E-2,2.076941915E-2,-5.314527452E-2
2.508021924E0,-9.834930301E-2,1.954768784E-2,-5.558873713E-2
2.510090655E0,-1.026253626E-1,1.954768784E-2,-5.497787148E-2
2.512125309E0,-1.020144969E-1,1.893682219E-2,-5.742133409E-2
2.514194655E0,-1.020144969E-1,1.954768784E-2,-5.925392732E-2
2.516276771E0,-1.044579595E-1,1.832595654E-2,-5.864306539E-2
2.518299655E0,-1.062905490E-1,1.954768784E-2,-6.230825558E-2
2.520334771E0,-1.075122803E-1,2.015855350E-2,-5.864306539E-2
2.522403501E0,-1.099557430E-1,1.954768784E-2,-6.169738993E-2
2.524438386E0,-1.117883399E-1,1.954768784E-2,-6.291911751E-2
2.526507924E0,-1.136209369E-1,2.138028294E-2,-6.230825558E-2
2.528543386E0,-1.160643995E-1,2.138028294E-2,-6.658431143E-2
2.530612463E0,-1.166752651E-1,2.504547499E-2,-6.597344577E-2
2.532647347E0,-1.233947799E-1,2.504547499E-2,-6.719517708E-2
2.534716963E0,-1.215621829E-1,2.687807009E-2,-7.086037099E-2
2.536799347E0,-1.258382350E-1,2.748893574E-2,-7.086037099E-2
2.538821886E0,-1.282816976E-1,2.993239649E-2,-7.147123665E-2
2.540856770E0,-1.319468915E-1,2.993239649E-2,-7.330382615E-2
2.542926886E0,-1.343903542E-1,3.054326214E-2,-7.574728876E-2
2.544962809E0,-1.386664063E-1,3.237585723E-2,-7.330382615E-2
2.547079463E0,-1.411098689E-1,3.176499158E-2,-7.757988572E-2
2.549067886E0,-1.447750628E-1,3.176499158E-2,-7.880161703E-2
2.551137617E0,-1.502728462E-1,3.359758854E-2,-8.185594529E-2
2.553171924E0,-1.521054506E-1,3.359758854E-2,-8.307767659E-2
2.555241963E0,-1.569923609E-1,3.481931984E-2,-7.880161703E-2
2.557323463E0,-1.612684280E-1,3.604105115E-2,-8.368854225E-2
2.559345655E0,-1.643227488E-1,3.543018550E-2,-8.613199741E-2
2.561380693E0,-1.667662114E-1,3.665191308E-2,-8.307767659E-2
2.563449386E0,-1.722639948E-1,3.909537569E-2,-8.674286306E-2
2.565483809E0,-1.734857261E-1,3.970624134E-2,-8.796459436E-2
2.567553001E0,-1.747074574E-1,3.909537569E-2,-8.491026610E-2
2.569587617E0,-1.789835095E-1,3.970624134E-2,-8.552113175E-2
2.571657155E0,-1.814269722E-1,4.031710699E-2,-8.552113175E-2
2.573691347E0,-1.795943826E-1,4.092797264E-2,-8.735372871E-2
2.575776116E0,-1.814269722E-1,4.153883830E-2,-8.979719132E-2
2.577843001E0,-1.832595766E-1,4.276056588E-2,-8.857546002E-2
2.579864847E0,-1.826487035E-1,4.214970022E-2,-8.857546002E-2
2.582352616E0,-1.832595766E-1,4.398229718E-2,-9.040805697E-2
2.583943770E0,-1.832595766E-1,4.764748737E-2,-9.040805697E-2
2.585943578E0,-1.820378453E-1,4.764748737E-2,-8.613199741E-2
2.588058809E0,-1.795943826E-1,4.886921868E-2,-9.040805697E-2
2.590047616E0,-1.777617931E-1,5.131268129E-2,-9.040805697E-2
2.592117116E0,-1.765400618E-1,5.131268129E-2,-8.979719132E-2
2.594152693E0,-1.747074574E-1,5.070181563E-2,-9.346238524E-2
2.596221616E0,-1.747074574E-1,5.314527452E-2,-8.979719132E-2
2.598304155E0,-1.710422635E-1,5.436700583E-2,-9.040805697E-2
2.600326886E0,-1.728748679E-1,5.314527452E-2,-9.346238524E-2
2.602361501E0,-1.698205322E-1,5.497787148E-2,-9.224065393E-2
2.604430424E0,-1.692096740E-1,5.681046844E-2,-9.285151958E-2
2.606465347E0,-1.679879427E-1,5.742133409E-2,-9.346238524E-2
2.608535078E0,-1.673770845E-1,5.742133409E-2,-9.407325089E-2
2.610569732E0,-1.649336219E-1,6.047565863E-2,-9.224065393E-2
2.612639655E0,-1.649336219E-1,5.864306539E-2,-9.773843735E-2
2.614674616E0,-1.631010175E-1,6.108652428E-2,-9.529497474E-2
2.616744539E0,-1.637118906E-1,6.108652428E-2,-9.407325089E-2
2.618826309E0,-1.624901593E-1,6.230825558E-2,-9.712757170E-2
2.620848732E0,-1.624901593E-1,5.986479297E-2,-9.407325089E-2
2.622883424E0,-1.631010175E-1,6.352998316E-2,-9.346238524E-2
2.624952962E0,-1.612684280E-1,6.475171447E-2,-9.346238524E-2
2.626987193E0,-1.631010175E-1,6.352998316E-2,-9.040805697E-2
2.629102347E0,-1.631010175E-1,6.597344577E-2,-9.224065393E-2
2.631090232E0,-1.618792862E-1,6.780604273E-2,-9.162978828E-2
2.633159155E0,-1.606575549E-1,6.841690838E-2,-9.101892263E-2
2.635193732E0,-1.594358236E-1,7.024950534E-2,-8.796459436E-2
2.637263039E0,-1.606575549E-1,7.024950534E-2,-8.796459436E-2
2.639344962E0,-1.612684280E-1,7.208210230E-2,-8.552113175E-2
2.641367155E0,-1.588249654E-1,7.024950534E-2,-8.429940045E-2
2.643401655E0,-1.557706445E-1,7.269296050E-2,-8.491026610E-2
2.645470885E0,-1.533271819E-1,7.330382615E-2,-8.063421398E-2
2.647504847E0,-1.563815027E-1,7.024950534E-2,-7.819075137E-2
2.649574193E0,-1.539380401E-1,7.086037099E-2,-7.819075137E-2
2.651608655E0,-1.508837193E-1,7.086037099E-2,-7.330382615E-2
2.653678924E0,-1.514945775E-1,6.841690838E-2,-7.391469181E-2
2.655713001E0,-1.496619880E-1,6.902777404E-2,-7.269296050E-2
2.657783116E0,-1.496619880E-1,6.780604273E-2,-6.719517708E-2
2.659865655E0,-1.466076523E-1,6.719517708E-2,-6.780604273E-2
2.661887962E0,-1.447750628E-1,6.475171447E-2,-6.902777404E-2
2.663923347E0,-1.429424733E-1,6.536258012E-2,-6.230825558E-2
2.665993193E0,-1.423316002E-1,6.291911751E-2,-6.658431143E-2
2.668028155E0,-1.386664063E-1,6.291911751E-2,-6.414084882E-2
2.670143808E0,-1.368338168E-1,6.291911751E-2,-6.475171447E-2
2.672133693E0,-1.350012124E-1,6.108652428E-2,-6.108652428E-2
2.674203385E0,-1.319468915E-1,6.291911751E-2,-5.925392732E-2
2.676238116E0,-1.331686229E-1,6.169738993E-2,-5.619960278E-2
2.678307539E0,-1.276708394E-1,6.291911751E-2,-6.230825558E-2
2.680389962E0,-1.295034289E-1,6.291911751E-2,-5.803219974E-2
2.682412270E0,-1.246165112E-1,6.291911751E-2,-5.864306539E-2
2.684447424E0,-1.246165112E-1,6.414084882E-2,-5.864306539E-2
2.686517424E0,-1.209513173E-1,6.352998316E-2,-5.925392732E-2
2.688552578E0,-1.191187203E-1,6.352998316E-2,-5.558873713E-2
2.690622347E0,-1.185078546E-1,6.108652428E-2,-5.864306539E-2
2.692657424E0,-1.160643995E-1,6.108652428E-2,-5.497787148E-2
2.694726770E0,-1.166752651E-1,5.925392732E-2,-5.558873713E-2
2.696762385E0,-1.160643995E-1,5.681046844E-2,-5.619960278E-2
2.698830885E0,-1.148426682E-1,5.375614017E-2,-5.192354694E-2
2.700913847E0,-1.130100712E-1,5.192354694E-2,-5.253441259E-2
2.702935231E0,-1.123992056E-1,5.009094998E-2,-5.375614017E-2
2.704971116E0,-1.093448773E-1,4.581489414E-2,-4.703662544E-2
2.707040193E0,-1.093448773E-1,4.398229718E-2,-5.070181563E-2
2.709075770E0,-1.099557430E-1,3.970624134E-2,-5.131268129E-2
2.711192462E0,-1.081231460E-1,3.604105115E-2,-4.459316283E-2
2.713180385E0,-1.069014147E-1,3.665191308E-2,-4.703662544E-2
2.715250424E0,-1.062905490E-1,3.298672289E-2,-4.825835302E-2
2.717285654E0,-1.044579595E-1,2.993239649E-2,-4.459316283E-2
2.719355577E0,-1.062905490E-1,2.932153270E-2,-4.520402849E-2
2.721438077E0,-1.038470939E-1,2.443460934E-2,-4.642575979E-2
2.723459962E0,-1.032362282E-1,2.382374369E-2,-3.970624134E-2
2.725494116E0,-1.020144969E-1,2.321287990E-2,-4.581489414E-2
2.727563654E0,-1.014036313E-1,2.260201424E-2,-4.337143153E-2
2.729599424E0,-1.007927656E-1,2.199114859E-2,-3.848451003E-2
2.731668616E0,-9.957103431E-2,2.504547499E-2,-4.337143153E-2
2.733703424E0,-9.773843735E-2,2.382374369E-2,-4.459316283E-2
2.735773462E0,-9.529497474E-2,2.748893574E-2,-4.153883830E-2
2.737808116E0,-9.285151958E-2,2.993239649E-2,-4.031710699E-2
2.739877770E0,-9.162978828E-2,3.115412779E-2,-4.214970022E-2
2.741960231E0,-8.918632567E-2,3.298672289E-2,-3.909537569E-2
2.743981962E0,-9.040805697E-2,3.604105115E-2,-4.153883830E-2
2.746016847E0,-8.796459436E-2,3.848451003E-2,-4.214970022E-2
2.748085654E0,-8.552113175E-2,4.092797264E-2,-4.276056588E-2
2.750120539E0,-8.368854225E-2,4.520402849E-2,-4.581489414E-2
2.752235231E0,-8.429940045E-2,4.703662544E-2,-4.337143153E-2
2.754223385E0,-8.246681094E-2,4.825835302E-2,-4.214970022E-2
2.756292962E0,-8.002334833E-2,5.253441259E-2,-4.214970022E-2
2.758327500E0,-7.574728876E-2,5.497787148E-2,-4.398229718E-2
2.760396616E0,-7.513642311E-2,5.864306539E-2,-4.581489414E-2
2.762478347E0,-7.269296050E-2,6.047565863E-2,-4.520402849E-2
2.764500654E0,-7.086037099E-2,6.230825558E-2,-4.398229718E-2
2.766536039E0,-6.963863969E-2,6.291911751E-2,-4.581489414E-2
2.768606539E0,-6.841690838E-2,6.414084882E-2,-4.886921868E-2
2.770641077E0,-6.719517708E-2,6.536258012E-2,-4.459316283E-2
2.772711500E0,-6.841690838E-2,6.475171447E-2,-4.825835302E-2
2.774747000E0,-6.841690838E-2,6.108652428E-2,-4.764748737E-2
2.776817308E0,-6.902777404E-2,5.864306539E-2,-4.398229718E-2
2.778853116E0,-6.902777404E-2,5.497787148E-2,-4.459316283E-2
2.780923539E0,-6.841690838E-2,5.619960278E-2,-4.948008433E-2
2.783006500E0,-6.841690838E-2,5.009094998E-2,-4.337143153E-2
2.785029308E0,-7.086037099E-2,4.581489414E-2,-4.581489414E-2
2.787064808E0,-6.963863969E-2,4.459316283E-2,-5.009094998E-2
2.789134193E0,-6.902777404E-2,4.092797264E-2,-4.337143153E-2
2.791169231E0,-7.086037099E-2,3.970624134E-2,-4.581489414E-2
2.793285462E0,-7.024950534E-2,3.909537569E-2,-4.398229718E-2
2.795274462E0,-7.024950534E-2,3.848451003E-2,-4.337143153E-2
2.797344500E0,-6.963863969E-2,3.726277873E-2,-4.276056588E-2
2.799379423E0,-7.024950534E-2,4.031710699E-2,-4.520402849E-2
2.801449308E0,-7.086037099E-2,3.909537569E-2,-3.848451003E-2
2.803531923E0,-6.963863969E-2,3.970624134E-2,-3.787364438E-2
2.805553731E0,-6.597344577E-2,4.092797264E-2,-4.092797264E-2
2.807588654E0,-6.658431143E-2,4.276056588E-2,-3.726277873E-2
2.809658116E0,-6.536258012E-2,4.459316283E-2,-3.848451003E-2
2.811692539E0,-6.352998316E-2,4.520402849E-2,-3.909537569E-2
2.813762269E0,-6.169738993E-2,4.703662544E-2,-3.604105115E-2
2.815798346E0,-6.169738993E-2,4.948008433E-2,-3.604105115E-2
2.817868154E0,-5.742133409E-2,5.131268129E-2,-3.604105115E-2
2.819903577E0,-5.742133409E-2,5.192354694E-2,-3.420845419E-2
2.821973385E0,-5.619960278E-2,5.314527452E-2,-3.115412779E-2
2.824056231E0,-5.314527452E-2,5.497787148E-2,-3.054326214E-2
2.826077885E0,-5.192354694E-2,5.497787148E-2,-2.871066704E-2
2.828563769E0,-4.948008433E-2,5.925392732E-2,-3.115412779E-2
2.830155808E0,-4.948008433E-2,5.986479297E-2,-2.809980139E-2
2.832155808E0,-4.703662544E-2,6.230825558E-2,-3.176499158E-2
2.834272269E0,-4.642575979E-2,6.414084882E-2,-3.298672289E-2
2.836261500E0,-4.581489414E-2,6.597344577E-2,-3.237585723E-2
2.838331192E0,-4.398229718E-2,6.902777404E-2,-3.115412779E-2
2.840366308E0,-4.214970022E-2,6.841690838E-2,-3.359758854E-2
2.842436346E0,-4.031710699E-2,7.208210230E-2,-3.237585723E-2
2.844518731E0,-4.153883830E-2,7.330382615E-2,-3.237585723E-2
2.846541500E0,-4.153883830E-2,7.452555746E-2,-3.420845419E-2
2.848576154E0,-3.970624134E-2,7.513642311E-2,-3.359758854E-2
2.850645115E0,-4.092797264E-2,7.452555746E-2,-3.359758854E-2
2.852680231E0,-4.031710699E-2,7.696902007E-2,-3.543018550E-2
2.854749231E0,-4.276056588E-2,7.757988572E-2,-3.237585723E-2
2.856783577E0,-4.153883830E-2,8.002334833E-2,-3.420845419E-2
2.858852692E0,-4.337143153E-2,8.002334833E-2,-3.665191308E-2
2.860887038E0,-4.214970022E-2,8.185594529E-2,-3.665191308E-2
2.862955885E0,-4.520402849E-2,8.124507964E-2,-3.787364438E-2
2.865038538E0,-4.276056588E-2,8.124507964E-2,-3.970624134E-2
2.867059808E0,-4.581489414E-2,8.491026610E-2,-4.031710699E-2
2.869094615E0,-4.520402849E-2,8.491026610E-2,-3.909537569E-2
2.871163615E0,-4.642575979E-2,8.674286306E-2,-4.031710699E-2
2.873198538E0,-4.642575979E-2,8.429940045E-2,-4.031710699E-2
2.875314731E0,-4.764748737E-2,8.735372871E-2,-4.337143153E-2
2.877303500E0,-4.764748737E-2,8.979719132E-2,-4.276056588E-2
2.879372923E0,-4.581489414E-2,8.857546002E-2,-4.459316283E-2
2.881408038E0,-4.764748737E-2,8.857546002E-2,-4.398229718E-2
2.883477346E0,-4.825835302E-2,9.101892263E-2,-4.703662544E-2
2.885559692E0,-4.948008433E-2,9.162978828E-2,-4.520402849E-2
2.887582385E0,-4.703662544E-2,9.101892263E-2,-4.764748737E-2
2.889617192E0,-5.009094998E-2,9.101892263E-2,-4.642575979E-2
2.891686308E0,-4.642575979E-2,9.101892263E-2,-4.703662544E-2
2.893720692E0,-4.520402849E-2,9.101892263E-2,-4.948008433E-2
2.895790269E0,-4.581489414E-2,9.040805697E-2,-5.009094998E-2
2.897825461E0,-4.520402849E-2,8.979719132E-2,-5.009094998E-2
2.899895961E0,-4.459316283E-2,8.857546002E-2,-5.131268129E-2
2.901931038E0,-4.031710699E-2,8.918632567E-2,-5.131268129E-2
2.904000346E0,-4.337143153E-2,8.613199741E-2,-5.009094998E-2
2.906082615E0,-4.092797264E-2,8.674286306E-2,-4.948008433E-2
2.908104231E0,-4.031710699E-2,8.552113175E-2,-4.764748737E-2
2.910138615E0,-4.031710699E-2,8.185594529E-2,-4.642575979E-2
2.912207923E0,-4.153883830E-2,8.185594529E-2,-4.520402849E-2
2.914242923E0,-4.337143153E-2,7.941248268E-2,-4.886921868E-2
2.916358269E0,-4.092797264E-2,7.941248268E-2,-4.459316283E-2
2.918355654E0,-4.092797264E-2,7.635815442E-2,-4.398229718E-2
2.920425692E0,-4.153883830E-2,7.391469181E-2,-4.276056588E-2
2.922460000E0,-3.970624134E-2,7.269296050E-2,-4.031710699E-2
2.924529461E0,-4.092797264E-2,7.208210230E-2,-3.787364438E-2
2.926611538E0,-3.970624134E-2,6.963863969E-2,-3.909537569E-2
2.928633654E0,-4.276056588E-2,6.597344577E-2,-3.665191308E-2
2.930668461E0,-4.153883830E-2,6.536258012E-2,-3.481931984E-2
2.932737500E0,-4.092797264E-2,6.475171447E-2,-3.543018550E-2
2.934772500E0,-3.848451003E-2,6.414084882E-2,-3.665191308E-2
2.936842692E0,-4.092797264E-2,6.047565863E-2,-3.298672289E-2
2.938877230E0,-4.214970022E-2,6.047565863E-2,-3.237585723E-2
2.940946615E0,-3.909537569E-2,5.803219974E-2,-2.993239649E-2
2.942981615E0,-3.909537569E-2,5.742133409E-2,-3.054326214E-2
2.945051500E0,-4.031710699E-2,5.742133409E-2,-2.932153270E-2
2.947134038E0,-3.909537569E-2,5.742133409E-2,-2.443460934E-2
2.949156615E0,-4.031710699E-2,5.681046844E-2,-2.626720630E-2
2.951192077E0,-3.970624134E-2,5.436700583E-2,-2.687807009E-2
2.953261654E0,-3.726277873E-2,5.375614017E-2,-2.687807009E-2
2.955296230E0,-4.031710699E-2,5.192354694E-2,-2.565634064E-2
2.957412000E0,-3.787364438E-2,4.948008433E-2,-2.504547499E-2
2.959400653E0,-3.909537569E-2,4.948008433E-2,-2.260201424E-2
2.961470000E0,-3.726277873E-2,4.948008433E-2,-2.443460934E-2
2.963505000E0,-3.604105115E-2,4.886921868E-2,-2.260201424E-2
2.965573961E0,-3.359758854E-2,4.886921868E-2,-2.443460934E-2
2.967656807E0,-3.359758854E-2,4.703662544E-2,-2.504547499E-2
2.969679577E0,-3.359758854E-2,4.703662544E-2,-2.321287990E-2
2.971714230E0,-3.481931984E-2,4.703662544E-2,-2.199114859E-2
2.973783961E0,-3.237585723E-2,4.703662544E-2,-2.626720630E-2
2.975818923E0,-3.359758854E-2,4.703662544E-2,-2.260201424E-2
2.977888653E0,-3.115412779E-2,4.764748737E-2,-2.138028294E-2
2.979923807E0,-2.932153270E-2,4.642575979E-2,-2.687807009E-2
2.981992653E0,-2.687807009E-2,4.825835302E-2,-2.443460934E-2
2.984028000E0,-2.565634064E-2,5.070181563E-2,-2.626720630E-2
2.986112384E0,-2.687807009E-2,5.070181563E-2,-2.626720630E-2
2.988178923E0,-2.626720630E-2,5.009094998E-2,-2.809980139E-2
2.990201038E0,-2.199114859E-2,5.253441259E-2,-2.748893574E-2
2.992236961E0,-2.382374369E-2,5.070181563E-2,-2.871066704E-2
2.994305576E0,-2.321287990E-2,5.436700583E-2,-2.504547499E-2
2.996340576E0,-2.321287990E-2,5.497787148E-2,-2.809980139E-2
2.998457192E0,-2.504547499E-2,5.558873713E-2,-2.932153270E-2
3.000445653E0,-2.504547499E-2,5.681046844E-2,-2.321287990E-2
3.002515307E0,-2.504547499E-2,5.925392732E-2,-2.565634064E-2
3.004549499E0,-2.443460934E-2,5.986479297E-2,-2.809980139E-2
3.006620384E0,-2.565634064E-2,5.986479297E-2,-2.382374369E-2
3.008702999E0,-2.626720630E-2,6.108652428E-2,-2.443460934E-2
3.010724384E0,-2.687807009E-2,6.169738993E-2,-2.260201424E-2
3.012760423E0,-2.565634064E-2,6.291911751E-2,-2.076941915E-2
3.014829076E0,-2.748893574E-2,5.986479297E-2,-2.260201424E-2
3.016864384E0,-2.871066704E-2,6.169738993E-2,-2.321287990E-2
3.018933884E0,-2.871066704E-2,6.352998316E-2,-1.771509275E-2
3.020968422E0,-2.871066704E-2,6.291911751E-2,-1.527163107E-2
3.023037807E0,-2.748893574E-2,6.352998316E-2,-1.832595654E-2
3.025072730E0,-2.809980139E-2,6.230825558E-2,-1.527163107E-2
3.027142846E0,-2.871066704E-2,6.352998316E-2,-1.160643995E-2
3.029225538E0,-3.054326214E-2,6.475171447E-2,-1.527163107E-2
3.031247922E0,-2.993239649E-2,6.169738993E-2,-1.160643995E-2
3.033283499E0,-2.871066704E-2,6.169738993E-2,-1.160643995E-2
3.035352769E0,-3.176499158E-2,5.986479297E-2,-1.221730467E-2
3.037388192E0,-3.115412779E-2,6.108652428E-2,-6.719517522E-3
3.039504192E0,-3.298672289E-2,6.108652428E-2,-6.719517522E-3
3.041492730E0,-3.054326214E-2,5.986479297E-2,-9.162978269E-3
3.043562653E0,-3.298672289E-2,5.742133409E-2,-4.276056774E-3
3.045597769E0,-3.054326214E-2,5.742133409E-2,-9.162978269E-3
3.047666807E0,-3.359758854E-2,5.436700583E-2,-9.162978269E-3
3.049748845E0,-3.420845419E-2,5.619960278E-2,-4.886921961E-3
3.051770576E0,-3.115412779E-2,5.619960278E-2,-6.719517522E-3
3.053806038E0,-3.237585723E-2,5.375614017E-2,-7.330383174E-3
3.055874922E0,-3.176499158E-2,5.131268129E-2,-5.497787148E-3
3.057910115E0,-3.054326214E-2,5.009094998E-2,-5.497787148E-3
3.059979038E0,-3.115412779E-2,5.070181563E-2,-1.099557430E-2
3.062013268E0,-3.176499158E-2,5.009094998E-2,-6.108652335E-3
3.064082653E0,-3.115412779E-2,4.703662544E-2,-1.099557430E-2
3.066117422E0,-3.115412779E-2,4.825835302E-2,-9.162978269E-3
3.068188153E0,-3.054326214E-2,4.398229718E-2,-7.941247895E-3
3.070270076E0,-2.932153270E-2,4.520402849E-2,-9.773843922E-3
3.072291192E0,-2.932153270E-2,4.520402849E-2,-1.466076635E-2
3.074777961E0,-2.932153270E-2,4.214970022E-2,-1.038470957E-2
3.076369384E0,-2.809980139E-2,4.337143153E-2,-9.773843922E-3
3.078370230E0,-2.565634064E-2,4.092797264E-2,-1.160643995E-2
3.080486191E0,-2.565634064E-2,3.970624134E-2,-9.773843922E-3
3.082474807E0,-2.809980139E-2,3.970624134E-2,-1.099557430E-2
3.084545153E0,-2.687807009E-2,3.726277873E-2,-1.038470957E-2
3.086580653E0,-2.809980139E-2,3.787364438E-2,-7.330383174E-3
3.088650153E0,-2.748893574E-2,3.481931984E-2,-1.038470957E-2
3.090732961E0,-2.565634064E-2,3.420845419E-2,-1.343903504E-2
3.092755115E0,-2.504547499E-2,3.298672289E-2,-9.162978269E-3
3.094790384E0,-2.443460934E-2,3.054326214E-2,-6.108652335E-3
3.096860499E0,-2.443460934E-2,3.115412779E-2,-9.162978269E-3
3.098895922E0,-2.382374369E-2,3.054326214E-2,-6.108652335E-3
3.100966230E0,-2.076941915E-2,2.809980139E-2,-8.552113548E-3
3.103000538E0,-2.321287990E-2,2.626720630E-2,-6.719517522E-3
3.105070807E0,-2.321287990E-2,2.565634064E-2,-6.108652335E-3
3.107106268E0,-2.321287990E-2,2.565634064E-2,-5.497787148E-3
3.109175768E0,-2.382374369E-2,2.443460934E-2,-6.719517522E-3
3.111259191E0,-2.260201424E-2,2.382374369E-2,-5.497787148E-3
3.113280730E0,-2.138028294E-2,2.504547499E-2,-6.108652335E-3
3.115315999E0,-2.321287990E-2,2.443460934E-2,-4.886921961E-3
3.117385807E0,-2.138028294E-2,2.443460934E-2,-5.497787148E-3
3.119421076E0,-2.260201424E-2,2.504547499E-2,-7.941247895E-3
3.121537461E0,-2.138028294E-2,2.565634064E-2,-3.665191587E-3
3.123527037E0,-2.138028294E-2,2.626720630E-2,-6.108652335E-3
3.125597191E0,-2.138028294E-2,2.687807009E-2,-4.886921961E-3
3.127632499E0,-2.199114859E-2,2.932153270E-2,-7.941247895E-3
3.129702461E0,-2.260201424E-2,3.115412779E-2,-3.054326167E-3
3.131785768E0,-2.199114859E-2,3.176499158E-2,-7.941247895E-3
3.133808461E0,-2.138028294E-2,3.237585723E-2,-5.497787148E-3
3.135843922E0,-1.954768784E-2,3.237585723E-2,-7.941247895E-3
3.137913922E0,-2.260201424E-2,3.481931984E-2,-7.941247895E-3
3.139949153E0,-1.954768784E-2,3.665191308E-2,-8.552113548E-3
3.142019114E0,-2.138028294E-2,3.787364438E-2,-1.099557430E-2
3.144054191E0,-2.015855350E-2,3.848451003E-2,-8.552113548E-3
3.146123499E0,-1.832595654E-2,3.909537569E-2,-1.038470957E-2
3.148158730E0,-2.138028294E-2,4.214970022E-2,-1.038470957E-2
3.150228384E0,-2.076941915E-2,4.276056588E-2,-9.162978269E-3
3.152311230E0,-1.893682219E-2,4.459316283E-2,-1.343903504E-2
3.154333845E0,-2.076941915E-2,4.642575979E-2,-9.773843922E-3
3.156369307E0,-1.832595654E-2,4.703662544E-2,-1.221730467E-2
3.158438807E0,-1.893682219E-2,4.764748737E-2,-1.221730467E-2
3.160473883E0,-1.954768784E-2,4.825835302E-2,-1.038470957E-2
3.162589960E0,-1.710422710E-2,5.009094998E-2,-1.160643995E-2
3.164580691E0,-1.710422710E-2,5.131268129E-2,-9.773843922E-3
3.166650653E0,-1.649336144E-2,5.253441259E-2,-1.343903504E-2
3.168685499E0,-1.588249579E-2,5.131268129E-2,-1.221730467E-2
3.170754999E0,-1.343903504E-2,5.314527452E-2,-1.160643995E-2
3.172837576E0,-1.527163107E-2,5.314527452E-2,-7.941247895E-3
3.174859537E0,-1.343903504E-2,5.375614017E-2,-1.038470957E-2
3.176894383E0,-1.588249579E-2,5.497787148E-2,-7.330383174E-3
3.178964268E0,-1.404990070E-2,5.681046844E-2,-9.162978269E-3
3.180999268E0,-1.466076635E-2,5.864306539E-2,-6.719517522E-3
3.183068922E0,-1.527163107E-2,6.169738993E-2,-6.108652335E-3
3.185104037E0,-1.527163107E-2,6.108652428E-2,-1.832595794E-3
3.187173999E0,-1.588249579E-2,6.475171447E-2,-3.665191587E-3
3.189210114E0,-1.588249579E-2,7.024950534E-2,-1.832595794E-3
3.191279499E0,-1.710422710E-2,7.024950534E-2,-1.221730490E-3
3.193362460E0,-1.832595654E-2,7.574728876E-2,-1.221730490E-3
3.195384730E0,-1.893682219E-2,8.307767659E-2,1.221730490E-3
3.197419999E0,-1.954768784E-2,8.246681094E-2,1.221730490E-3
3.199489345E0,-2.076941915E-2,8.979719132E-2,1.832595794E-3
3.201523960E0,-2.138028294E-2,9.712757170E-2,-6.108652451E-4
3.203639691E0,-2.443460934E-2,1.001819000E-1,6.108652451E-4
3.205628537E0,-2.443460934E-2,1.056796908E-1,-1.832595794E-3
3.207697806E0,-2.626720630E-2,1.123992056E-1,-6.108652451E-4
3.209733191E0,-2.871066704E-2,1.142318025E-1,0.000000000E0
3.211802883E0,-2.932153270E-2,1.197295859E-1,-2.443460980E-3
3.213885383E0,-3.054326214E-2,1.203404516E-1,-3.054326167E-3
3.215908499E0,-3.543018550E-2,1.221730486E-1,-1.221730490E-3
3.217942845E0,-3.420845419E-2,1.240056455E-1,-5.497787148E-3
3.220013537E0,-3.726277873E-2,1.215621829E-1,-4.276056774E-3
3.222048191E0,-4.276056588E-2,1.221730486E-1,-6.108652335E-3
3.224118460E0,-4.031710699E-2,1.215621829E-1,-8.552113548E-3
3.226153152E0,-4.276056588E-2,1.185078546E-1,-8.552113548E-3
3.228221729E0,-4.337143153E-2,1.142318025E-1,-1.038470957E-2
3.230257037E0,-4.703662544E-2,1.105666086E-1,-1.099557430E-2
3.232326652E0,-4.886921868E-2,1.026253626E-1,-1.221730467E-2
3.234409537E0,-4.948008433E-2,9.712757170E-2,-1.221730467E-2
3.236431576E0,-4.886921868E-2,9.162978828E-2,-1.771509275E-2
3.238466268E0,-5.253441259E-2,8.674286306E-2,-1.588249579E-2
3.240536537E0,-5.314527452E-2,7.941248268E-2,-1.588249579E-2
3.242572037E0,-5.253441259E-2,6.902777404E-2,-1.954768784E-2
3.244688422E0,-5.497787148E-2,6.658431143E-2,-1.954768784E-2
3.246677268E0,-5.803219974E-2,5.742133409E-2,-1.649336144E-2
3.248747229E0,-5.803219974E-2,5.070181563E-2,-1.893682219E-2
3.250782306E0,-6.169738993E-2,4.642575979E-2,-1.832595654E-2
3.252852075E0,-5.986479297E-2,3.970624134E-2,-1.771509275E-2
3.254934383E0,-6.230825558E-2,3.054326214E-2,-1.588249579E-2
3.256956960E0,-6.169738993E-2,3.054326214E-2,-1.710422710E-2
3.258992114E0,-6.230825558E-2,2.504547499E-2,-1.771509275E-2
3.261061729E0,-6.169738993E-2,2.076941915E-2,-1.649336144E-2
3.263096422E0,-6.169738993E-2,1.893682219E-2,-1.588249579E-2
3.265166306E0,-6.352998316E-2,1.466076635E-2,-1.282817032E-2
3.267201037E0,-6.169738993E-2,1.404990070E-2,-1.466076635E-2
3.269270691E0,-6.169738993E-2,1.221730467E-2,-1.038470957E-2
3.271305768E0,-6.108652428E-2,1.160643995E-2,-1.282817032E-2
3.273375883E0,-5.864306539E-2,1.099557430E-2,-1.282817032E-2
3.275458114E0,-5.925392732E-2,9.773843922E-3,-9.162978269E-3
3.277480345E0,-6.108652428E-2,9.773843922E-3,-6.719517522E-3
3.279515383E0,-5.681046844E-2,1.038470957E-2,-1.038470957E-2
3.281584652E0,-5.619960278E-2,9.773843922E-3,-7.330383174E-3
3.283619421E0,-5.803219974E-2,8.552113548E-3,-6.719517522E-3
3.285735498E0,-5.314527452E-2,6.719517522E-3,-9.773843922E-3
3.287724152E0,-5.192354694E-2,6.108652335E-3,-7.330383174E-3
3.289793498E0,-5.070181563E-2,4.886921961E-3,-5.497787148E-3
3.291828075E0,-4.825835302E-2,4.276056774E-3,-6.108652335E-3
3.293897921E0,-4.703662544E-2,3.054326167E-3,-3.054326167E-3
3.295980806E0,-4.459316283E-2,-1.221730490E-3,-2.443460980E-3
3.298003268E0,-4.520402849E-2,-1.221730490E-3,-6.108652335E-3
3.300038960E0,-4.520402849E-2,-2.443460980E-3,0.000000000E0
3.302108344E0,-4.031710699E-2,-7.330383174E-3,-1.221730490E-3
3.304143691E0,-4.276056588E-2,-5.497787148E-3,-1.221730490E-3
3.306213421E0,-4.153883830E-2,-6.719517522E-3,1.832595794E-3
3.308248344E0,-3.909537569E-2,-6.108652335E-3,1.832595794E-3
3.310317037E0,-4.031710699E-2,-6.719517522E-3,6.108652451E-4
3.312352844E0,-4.092797264E-2,-6.719517522E-3,2.443460980E-3
3.314422421E0,-4.031710699E-2,-8.552113548E-3,4.886921961E-3
3.316505652E0,-3.909537569E-2,-8.552113548E-3,1.221730490E-3
3.318527306E0,-3.970624134E-2,-7.941247895E-3,3.665191587E-3
3.321014921E0,-4.153883830E-2,-9.162978269E-3,1.832595794E-3
3.322606575E0,-4.031710699E-2,-9.162978269E-3,6.108652451E-4
3.324607267E0,-3.787364438E-2,-8.552113548E-3,2.443460980E-3
3.326724037E0,-3.848451003E-2,-9.773843922E-3,1.221730490E-3
3.328713460E0,-3.848451003E-2,-7.941247895E-3,6.108652451E-4
3.330783652E0,-3.970624134E-2,-7.941247895E-3,3.054326167E-3
3.332818767E0,-4.092797264E-2,-6.719517522E-3,0.000000000E0
3.334888844E0,-4.031710699E-2,-6.719517522E-3,1.832595794E-3
3.336971037E0,-3.909537569E-2,-4.276056774E-3,1.832595794E-3
3.338993998E0,-4.214970022E-2,-3.665191587E-3,3.054326167E-3
3.341029767E0,-3.970624134E-2,-2.443460980E-3,3.054326167E-3
3.343099075E0,-4.153883830E-2,-3.665191587E-3,3.054326167E-3
3.345134652E0,-4.031710699E-2,-1.221730490E-3,4.886921961E-3
3.347203998E0,-3.787364438E-2,-6.108652451E-4,3.665191587E-3
3.349239498E0,-4.276056588E-2,-2.443460980E-3,2.443460980E-3
3.351308729E0,-4.276056588E-2,-1.221730490E-3,3.054326167E-3
3.353344037E0,-4.092797264E-2,-1.221730490E-3,4.886921961E-3
3.355413306E0,-3.848451003E-2,-1.221730490E-3,5.497787148E-3
3.357495921E0,-3.787364438E-2,-3.665191587E-3,4.886921961E-3
3.359518537E0,-3.970624134E-2,-2.443460980E-3,5.497787148E-3
3.361553537E0,-3.970624134E-2,-3.054326167E-3,6.719517522E-3
3.363623460E0,-3.848451003E-2,-2.443460980E-3,7.941247895E-3
3.365658729E0,-3.787364438E-2,-1.832595794E-3,7.330383174E-3
3.367775075E0,-3.543018550E-2,-2.443460980E-3,8.552113548E-3
3.369763729E0,-3.726277873E-2,-4.886921961E-3,9.773843922E-3
3.371833998E0,-3.237585723E-2,-1.832595794E-3,9.773843922E-3
3.373869383E0,-3.115412779E-2,-1.832595794E-3,1.221730467E-2
3.375939652E0,-2.993239649E-2,6.108652451E-4,1.099557430E-2
3.378022152E0,-2.748893574E-2,1.832595794E-3,1.099557430E-2
3.380044190E0,-2.809980139E-2,3.054326167E-3,1.343903504E-2
3.382079383E0,-2.565634064E-2,3.054326167E-3,1.160643995E-2
3.384149575E0,-2.260201424E-2,4.886921961E-3,1.160643995E-2
3.386184883E0,-2.076941915E-2,6.108652335E-3,1.343903504E-2
3.388254498E0,-1.710422710E-2,6.108652335E-3,1.221730467E-2
3.390289575E0,-1.710422710E-2,7.330383174E-3,1.527163107E-2
3.392358998E0,-1.282817032E-2,6.719517522E-3,1.649336144E-2
3.394394921E0,-1.404990070E-2,5.497787148E-3,1.404990070E-2
3.396479383E0,-1.099557430E-2,6.108652335E-3,1.404990070E-2
3.398547383E0,-1.099557430E-2,7.330383174E-3,1.893682219E-2
3.400569844E0,-7.941247895E-3,6.719517522E-3,1.649336144E-2
3.402605075E0,-7.941247895E-3,5.497787148E-3,1.954768784E-2
3.404675190E0,-6.108652335E-3,5.497787148E-3,2.138028294E-2
3.406710306E0,-4.886921961E-3,3.054326167E-3,1.893682219E-2
3.408826190E0,-3.665191587E-3,1.832595794E-3,2.076941915E-2
3.410824613E0,-3.665191587E-3,1.221730490E-3,2.138028294E-2
3.412894806E0,-2.443460980E-3,1.221730490E-3,2.076941915E-2
3.414929459E0,-3.054326167E-3,-6.108652451E-4,2.199114859E-2
3.416999459E0,6.108652451E-4,-1.221730490E-3,2.138028294E-2
3.419081883E0,-1.221730490E-3,-1.832595794E-3,2.321287990E-2
3.421103459E0,0.000000000E0,-3.665191587E-3,2.260201424E-2
3.423138613E0,3.054326167E-3,-1.832595794E-3,2.260201424E-2
3.425208190E0,3.054326167E-3,-3.054326167E-3,2.382374369E-2
3.427242767E0,1.832595794E-3,-4.276056774E-3,2.321287990E-2
3.429312229E0,3.054326167E-3,-4.276056774E-3,2.443460934E-2
3.431346729E0,4.276056774E-3,-4.276056774E-3,2.199114859E-2
3.433416113E0,4.886921961E-3,-3.665191587E-3,2.260201424E-2
3.435451498E0,4.886921961E-3,-4.276056774E-3,2.565634064E-2
3.437520844E0,4.276056774E-3,-5.497787148E-3,2.565634064E-2
3.439603729E0,6.719517522E-3,-4.886921961E-3,2.626720630E-2
3.441625806E0,6.108652335E-3,-6.719517522E-3,2.565634064E-2
3.443660305E0,6.108652335E-3,-5.497787148E-3,2.504547499E-2
3.445730382E0,9.773843922E-3,-6.108652335E-3,2.443460934E-2
3.447764613E0,1.099557430E-2,-5.497787148E-3,2.321287990E-2
3.449879767E0,1.038470957E-2,-5.497787148E-3,2.626720630E-2
3.451867382E0,1.099557430E-2,-6.719517522E-3,2.382374369E-2
3.453936844E0,1.588249579E-2,-6.719517522E-3,2.321287990E-2
3.455971805E0,1.343903504E-2,-7.330383174E-3,1.954768784E-2
3.458041229E0,1.466076635E-2,-9.162978269E-3,2.260201424E-2
3.460123998E0,1.466076635E-2,-9.773843922E-3,2.199114859E-2
3.462145844E0,1.649336144E-2,-8.552113548E-3,2.076941915E-2
3.464180767E0,1.588249579E-2,-8.552113548E-3,1.954768784E-2
3.466249613E0,1.404990070E-2,-1.160643995E-2,1.893682219E-2
3.468284805E0,1.832595654E-2,-1.160643995E-2,2.199114859E-2
3.470354728E0,1.893682219E-2,-1.099557430E-2,2.076941915E-2
3.472389305E0,1.710422710E-2,-1.038470957E-2,2.015855350E-2
3.474459267E0,1.954768784E-2,-9.773843922E-3,1.893682219E-2
3.476494267E0,1.466076635E-2,-1.160643995E-2,2.260201424E-2
3.478563959E0,1.832595654E-2,-8.552113548E-3,1.649336144E-2
3.480646767E0,1.954768784E-2,-8.552113548E-3,1.954768784E-2
3.482668613E0,1.588249579E-2,-7.330383174E-3,2.015855350E-2
3.484703498E0,2.015855350E-2,-6.108652335E-3,1.710422710E-2
3.486773498E0,1.771509275E-2,-6.108652335E-3,1.649336144E-2
3.488808382E0,1.893682219E-2,-4.276056774E-3,1.710422710E-2
3.490924921E0,1.832595654E-2,-4.886921961E-3,1.527163107E-2
3.492913228E0,1.954768784E-2,-1.832595794E-3,1.588249579E-2
3.494982882E0,1.954768784E-2,6.108652451E-4,1.343903504E-2
3.497018036E0,1.649336144E-2,-1.832595794E-3,1.588249579E-2
3.499087382E0,1.771509275E-2,0.000000000E0,1.343903504E-2
3.501169959E0,1.893682219E-2,0.000000000E0,1.282817032E-2
3.503191690E0,1.588249579E-2,1.221730490E-3,1.160643995E-2
3.505226190E0,1.649336144E-2,1.221730490E-3,1.343903504E-2
3.507294882E0,1.710422710E-2,1.221730490E-3,1.404990070E-2
3.509329151E0,1.954768784E-2,4.276056774E-3,1.099557430E-2
3.511398767E0,1.954768784E-2,3.665191587E-3,7.941247895E-3
3.513432882E0,1.832595654E-2,4.276056774E-3,8.552113548E-3
3.515501728E0,1.832595654E-2,7.330383174E-3,9.162978269E-3
3.517536921E0,2.015855350E-2,6.719517522E-3,7.330383174E-3
3.519605921E0,1.832595654E-2,9.162978269E-3,7.330383174E-3
3.521688767E0,2.199114859E-2,1.038470957E-2,6.719517522E-3
3.523710305E0,1.771509275E-2,1.160643995E-2,5.497787148E-3
3.525745036E0,2.199114859E-2,1.160643995E-2,7.941247895E-3
3.527814267E0,2.260201424E-2,1.282817032E-2,9.773843922E-3
3.529848651E0,1.893682219E-2,1.221730467E-2,9.773843922E-3
3.531963882E0,2.138028294E-2,1.160643995E-2,1.160643995E-2
3.533952536E0,2.138028294E-2,1.038470957E-2,1.282817032E-2
3.536021882E0,2.260201424E-2,9.773843922E-3,1.527163107E-2
3.538057228E0,2.504547499E-2,7.330383174E-3,1.343903504E-2
3.540127151E0,2.565634064E-2,4.886921961E-3,1.832595654E-2
3.542209574E0,2.687807009E-2,3.054326167E-3,1.710422710E-2
3.544231459E0,2.626720630E-2,1.221730490E-3,2.076941915E-2
3.546267344E0,2.932153270E-2,-1.221730490E-3,2.321287990E-2
3.548335997E0,2.932153270E-2,-4.276056774E-3,2.382374369E-2
3.550370690E0,3.176499158E-2,-6.108652335E-3,2.748893574E-2
3.552439767E0,3.665191308E-2,-9.773843922E-3,2.748893574E-2
3.554474344E0,3.726277873E-2,-1.099557430E-2,2.748893574E-2
3.556543844E0,3.543018550E-2,-1.343903504E-2,3.359758854E-2
3.558578305E0,3.787364438E-2,-1.588249579E-2,3.298672289E-2
3.560647267E0,4.092797264E-2,-1.588249579E-2,3.237585723E-2
3.562729074E0,4.092797264E-2,-1.832595654E-2,3.787364438E-2
3.564750997E0,4.398229718E-2,-1.893682219E-2,3.909537569E-2
3.567237536E0,4.459316283E-2,-2.260201424E-2,4.092797264E-2
3.568829343E0,4.825835302E-2,-2.443460934E-2,4.031710699E-2
3.570829228E0,5.131268129E-2,-2.199114859E-2,3.909537569E-2
3.572945613E0,5.131268129E-2,-2.565634064E-2,4.214970022E-2
3.574934420E0,5.314527452E-2,-2.443460934E-2,4.398229718E-2
3.577002959E0,5.558873713E-2,-2.748893574E-2,4.092797264E-2
3.579037267E0,5.619960278E-2,-2.809980139E-2,4.581489414E-2
3.581106343E0,5.925392732E-2,-2.871066704E-2,4.398229718E-2
3.583187920E0,5.986479297E-2,-2.871066704E-2,4.153883830E-2
3.585209459E0,6.230825558E-2,-2.993239649E-2,4.153883830E-2
3.587243920E0,6.414084882E-2,-2.748893574E-2,4.276056588E-2
3.589314343E0,6.536258012E-2,-2.809980139E-2,4.092797264E-2
3.591349266E0,6.841690838E-2,-2.932153270E-2,3.909537569E-2
3.593420497E0,7.147123665E-2,-2.626720630E-2,3.970624134E-2
3.595454536E0,7.208210230E-2,-2.443460934E-2,3.787364438E-2
3.597524151E0,7.086037099E-2,-2.565634064E-2,3.726277873E-2
3.599558151E0,7.635815442E-2,-2.565634064E-2,3.787364438E-2
3.601627843E0,7.819075137E-2,-2.260201424E-2,3.665191308E-2
3.603710266E0,8.002334833E-2,-2.076941915E-2,3.481931984E-2
3.605732959E0,8.185594529E-2,-1.954768784E-2,3.298672289E-2
3.607768574E0,8.246681094E-2,-1.893682219E-2,3.237585723E-2
3.609838036E0,8.429940045E-2,-1.649336144E-2,2.871066704E-2
3.611873305E0,8.552113175E-2,-1.710422710E-2,2.932153270E-2
3.613988574E0,8.491026610E-2,-1.343903504E-2,2.687807009E-2
3.615977536E0,8.735372871E-2,-1.282817032E-2,2.871066704E-2
3.618046536E0,9.101892263E-2,-1.038470957E-2,2.504547499E-2
3.620081266E0,8.979719132E-2,-9.162978269E-3,2.504547499E-2
3.622150728E0,8.918632567E-2,-9.162978269E-3,2.687807009E-2
3.624232266E0,9.101892263E-2,-6.108652335E-3,2.565634064E-2
3.626253882E0,9.285151958E-2,-4.886921961E-3,2.565634064E-2
3.628288612E0,9.101892263E-2,-1.832595794E-3,2.382374369E-2
3.630357959E0,8.918632567E-2,-6.108652451E-4,2.321287990E-2
3.632392420E0,9.162978828E-2,2.443460980E-3,2.260201424E-2
3.634460882E0,9.101892263E-2,5.497787148E-3,2.138028294E-2
3.636495766E0,8.918632567E-2,5.497787148E-3,2.199114859E-2
3.638564766E0,8.979719132E-2,7.330383174E-3,2.199114859E-2
3.640598959E0,8.918632567E-2,1.221730467E-2,2.443460934E-2
3.642668459E0,9.040805697E-2,1.099557430E-2,2.076941915E-2
3.644750882E0,8.857546002E-2,1.527163107E-2,2.260201424E-2
3.646772689E0,8.552113175E-2,1.832595654E-2,2.382374369E-2
3.648807382E0,8.735372871E-2,1.954768784E-2,2.443460934E-2
3.650876343E0,8.429940045E-2,2.199114859E-2,2.260201424E-2
3.652911459E0,8.307767659E-2,2.138028294E-2,2.443460934E-2
3.655027074E0,8.307767659E-2,2.382374369E-2,2.321287990E-2
3.657017035E0,8.185594529E-2,2.382374369E-2,2.382374369E-2
3.659086651E0,8.124507964E-2,2.443460934E-2,2.382374369E-2
3.661121459E0,7.880161703E-2,2.199114859E-2,2.626720630E-2
3.663189805E0,7.819075137E-2,2.321287990E-2,2.443460934E-2
3.665272189E0,7.635815442E-2,2.015855350E-2,2.626720630E-2
3.667294151E0,7.574728876E-2,1.893682219E-2,2.809980139E-2
3.669328882E0,7.391469181E-2,1.649336144E-2,2.809980139E-2
3.671398997E0,7.024950534E-2,1.404990070E-2,2.871066704E-2
3.673433920E0,6.902777404E-2,1.343903504E-2,2.565634064E-2
3.675502882E0,7.208210230E-2,1.099557430E-2,2.565634064E-2
3.677538228E0,7.147123665E-2,8.552113548E-3,2.748893574E-2
3.679608151E0,6.780604273E-2,4.276056774E-3,2.809980139E-2
3.681642766E0,6.780604273E-2,3.665191587E-3,2.748893574E-2
3.683712305E0,6.780604273E-2,-6.108652451E-4,2.809980139E-2
3.685794074E0,6.475171447E-2,-3.054326167E-3,2.748893574E-2
3.687816189E0,6.230825558E-2,-4.886921961E-3,3.176499158E-2
3.689851228E0,6.536258012E-2,-2.443460980E-3,2.809980139E-2
3.691920151E0,6.536258012E-2,-5.497787148E-3,2.748893574E-2
3.693954920E0,6.230825558E-2,-7.330383174E-3,2.871066704E-2
3.696070343E0,6.230825558E-2,-8.552113548E-3,3.054326214E-2
3.698058381E0,6.291911751E-2,-1.038470957E-2,2.504547499E-2
3.700127689E0,6.291911751E-2,-1.099557430E-2,2.687807009E-2
3.702162497E0,6.230825558E-2,-1.099557430E-2,2.443460934E-2
3.704232074E0,5.986479297E-2,-1.160643995E-2,2.443460934E-2
3.706314112E0,5.925392732E-2,-1.099557430E-2,2.748893574E-2
3.708335612E0,5.803219974E-2,-1.404990070E-2,2.443460934E-2
3.710370381E0,5.803219974E-2,-1.221730467E-2,2.076941915E-2
3.712439420E0,5.681046844E-2,-1.404990070E-2,2.565634064E-2
3.714474074E0,5.558873713E-2,-1.404990070E-2,1.893682219E-2
3.716542997E0,5.314527452E-2,-1.343903504E-2,1.832595654E-2
3.718577689E0,5.436700583E-2,-1.343903504E-2,2.076941915E-2
3.720647189E0,5.131268129E-2,-1.160643995E-2,1.649336144E-2
3.722681958E0,5.192354694E-2,-1.282817032E-2,1.466076635E-2
3.724750958E0,5.131268129E-2,-1.099557430E-2,2.015855350E-2
3.726833151E0,4.886921868E-2,-1.160643995E-2,1.466076635E-2
3.728855074E0,4.703662544E-2,-1.282817032E-2,1.343903504E-2
3.730888458E0,4.825835302E-2,-9.773843922E-3,1.588249579E-2
3.732957381E0,4.642575979E-2,-1.038470957E-2,1.160643995E-2
3.734991689E0,4.398229718E-2,-1.038470957E-2,1.099557430E-2
3.737107574E0,4.276056588E-2,-9.162978269E-3,1.221730467E-2
3.739096074E0,4.214970022E-2,-8.552113548E-3,1.404990070E-2
3.741165612E0,4.153883830E-2,-9.773843922E-3,1.099557430E-2
3.743200727E0,4.092797264E-2,-7.941247895E-3,1.404990070E-2
3.745269958E0,3.848451003E-2,-6.108652335E-3,1.221730467E-2
3.747351881E0,3.604105115E-2,-7.941247895E-3,9.162978269E-3
3.749374074E0,3.726277873E-2,-7.330383174E-3,1.038470957E-2
3.751408304E0,3.726277873E-2,-4.276056774E-3,8.552113548E-3
3.753477458E0,3.604105115E-2,-4.886921961E-3,8.552113548E-3
3.755511727E0,3.420845419E-2,-4.886921961E-3,1.038470957E-2
3.757580843E0,3.115412779E-2,-3.054326167E-3,9.773843922E-3
3.759615535E0,3.054326214E-2,-3.665191587E-3,6.719517522E-3
3.761685074E0,2.871066704E-2,-3.665191587E-3,9.773843922E-3
3.763719727E0,2.932153270E-2,-4.276056774E-3,8.552113548E-3
3.765789073E0,2.809980139E-2,-3.665191587E-3,7.941247895E-3
3.767872073E0,2.626720630E-2,-2.443460980E-3,9.773843922E-3
3.769893304E0,2.443460934E-2,-1.221730490E-3,9.162978269E-3
3.771928150E0,2.626720630E-2,-6.108652451E-4,6.719517522E-3
3.773997227E0,2.504547499E-2,-6.108652451E-4,7.941247895E-3
3.776032381E0,2.199114859E-2,-6.108652451E-4,9.162978269E-3
3.778148189E0,2.382374369E-2,1.221730490E-3,6.719517522E-3
3.780136573E0,2.076941915E-2,2.443460980E-3,8.552113548E-3
3.782205958E0,1.954768784E-2,2.443460980E-3,9.773843922E-3
3.784240804E0,1.771509275E-2,1.832595794E-3,6.108652335E-3
3.786310343E0,1.710422710E-2,4.276056774E-3,8.552113548E-3
3.788392496E0,1.710422710E-2,4.276056774E-3,9.162978269E-3
3.790413958E0,1.588249579E-2,4.886921961E-3,6.719517522E-3
3.792447727E0,1.710422710E-2,7.941247895E-3,6.719517522E-3
3.794516612E0,1.466076635E-2,5.497787148E-3,4.886921961E-3
3.796551266E0,1.466076635E-2,6.719517522E-3,3.054326167E-3
3.798620227E0,1.343903504E-2,7.330383174E-3,7.330383174E-3
3.800654804E0,1.343903504E-2,6.719517522E-3,6.719517522E-3
3.802724227E0,1.343903504E-2,4.276056774E-3,7.330383174E-3
3.804758958E0,1.343903504E-2,6.719517522E-3,5.497787148E-3
3.806842996E0,1.099557430E-2,6.108652335E-3,5.497787148E-3
3.808911766E0,1.404990070E-2,7.330383174E-3,3.665191587E-3
3.810932843E0,1.160643995E-2,6.108652335E-3,5.497787148E-3
3.813419919E0,1.221730467E-2,6.719517522E-3,6.108652335E-3
3.815011189E0,1.160643995E-2,8.552113548E-3,5.497787148E-3
3.817010496E0,9.162978269E-3,8.552113548E-3,7.941247895E-3
3.819127189E0,1.099557430E-2,6.719517522E-3,5.497787148E-3
3.821114689E0,1.099557430E-2,4.276056774E-3,4.886921961E-3
3.823184112E0,1.160643995E-2,6.108652335E-3,6.108652335E-3
3.825219419E0,8.552113548E-3,6.719517522E-3,3.054326167E-3
3.827288304E0,7.330383174E-3,6.108652335E-3,6.108652335E-3
3.829370727E0,8.552113548E-3,6.719517522E-3,6.719517522E-3
3.831392689E0,7.330383174E-3,6.108652335E-3,5.497787148E-3
3.833426419E0,6.108652335E-3,6.719517522E-3,5.497787148E-3
3.835496189E0,6.719517522E-3,6.719517522E-3,6.719517522E-3
3.837530342E0,7.330383174E-3,5.497787148E-3,4.886921961E-3
3.839599842E0,6.108652335E-3,6.108652335E-3,5.497787148E-3
3.841634112E0,6.108652335E-3,6.719517522E-3,7.941247895E-3
3.843703727E0,4.886921961E-3,4.886921961E-3,3.054326167E-3
3.845738650E0,3.665191587E-3,3.665191587E-3,5.497787148E-3
3.847807919E0,6.108652335E-3,4.886921961E-3,5.497787148E-3
3.849890727E0,3.665191587E-3,6.719517522E-3,6.108652335E-3
3.851912073E0,3.054326167E-3,5.497787148E-3,9.162978269E-3
3.853946842E0,1.832595794E-3,7.330383174E-3,9.773843922E-3
3.856015804E0,2.443460980E-3,7.330383174E-3,4.886921961E-3
3.858050342E0,3.054326167E-3,6.719517522E-3,1.038470957E-2
3.860165919E0,4.886921961E-3,4.886921961E-3,7.941247895E-3
3.862154073E0,4.276056774E-3,5.497787148E-3,9.773843922E-3
3.864223881E0,3.665191587E-3,5.497787148E-3,7.941247895E-3
3.866257535E0,7.330383174E-3,4.276056774E-3,8.552113548E-3
3.868327035E0,5.497787148E-3,3.665191587E-3,6.719517522E-3
3.870408996E0,9.773843922E-3,2.443460980E-3,1.160643995E-2
3.872430688E0,1.160643995E-2,1.832595794E-3,6.719517522E-3
3.874465227E0,1.099557430E-2,1.221730490E-3,9.162978269E-3
3.876535342E0,1.343903504E-2,0.000000000E0,9.773843922E-3
3.878570573E0,1.404990070E-2,-3.054326167E-3,1.160643995E-2
3.880640881E0,1.649336144E-2,-1.832595794E-3,1.038470957E-2
3.882676804E0,1.527163107E-2,-1.832595794E-3,9.773843922E-3
3.884745612E0,1.832595654E-2,-4.276056774E-3,1.160643995E-2
3.886780304E0,1.771509275E-2,-4.276056774E-3,9.773843922E-3
3.888851035E0,1.954768784E-2,-5.497787148E-3,8.552113548E-3
3.890933727E0,1.832595654E-2,-9.773843922E-3,9.162978269E-3
3.892956035E0,1.710422710E-2,-8.552113548E-3,8.552113548E-3
3.894990265E0,1.771509275E-2,-9.773843922E-3,9.162978269E-3
3.897059419E0,1.649336144E-2,-1.221730467E-2,8.552113548E-3
3.899093611E0,1.771509275E-2,-1.282817032E-2,8.552113548E-3
3.901210573E0,1.343903504E-2,-1.343903504E-2,1.160643995E-2
3.903208496E0,1.649336144E-2,-1.343903504E-2,6.108652335E-3
3.905278573E0,1.588249579E-2,-1.466076635E-2,1.221730467E-2
3.907313381E0,1.343903504E-2,-1.588249579E-2,1.160643995E-2
3.909381727E0,1.343903504E-2,-1.710422710E-2,9.773843922E-3
3.911464919E0,1.343903504E-2,-1.832595654E-2,9.773843922E-3
3.913485496E0,1.404990070E-2,-1.893682219E-2,9.773843922E-3
3.915520842E0,9.773843922E-3,-1.893682219E-2,1.221730467E-2
3.917590381E0,1.160643995E-2,-2.015855350E-2,1.038470957E-2
3.919625804E0,8.552113548E-3,-2.138028294E-2,7.941247895E-3
3.921694996E0,8.552113548E-3,-2.138028294E-2,8.552113548E-3
3.923729419E0,9.162978269E-3,-2.321287990E-2,8.552113548E-3
3.925798419E0,8.552113548E-3,-2.504547499E-2,1.160643995E-2
3.927834342E0,9.773843922E-3,-2.565634064E-2,7.330383174E-3
3.929902996E0,8.552113548E-3,-2.809980139E-2,8.552113548E-3
3.931985842E0,5.497787148E-3,-2.871066704E-2,1.160643995E-2
3.934007496E0,5.497787148E-3,-2.809980139E-2,6.719517522E-3
3.936042111E0,3.665191587E-3,-2.932153270E-2,7.330383174E-3
3.938111573E0,3.665191587E-3,-3.115412779E-2,6.719517522E-3
3.940145842E0,4.886921961E-3,-3.115412779E-2,3.665191587E-3
3.942261381E0,0.000000000E0,-3.237585723E-2,7.941247895E-3
3.944250419E0,1.832595794E-3,-3.237585723E-2,4.886921961E-3
3.946318765E0,2.443460980E-3,-3.176499158E-2,6.108652335E-3
3.948352996E0,-1.832595794E-3,-3.237585723E-2,7.330383174E-3
3.950423150E0,1.221730490E-3,-3.176499158E-2,2.443460980E-3
3.952506188E0,-1.221730490E-3,-3.054326214E-2,4.276056774E-3
3.954527957E0,-1.832595794E-3,-3.054326214E-2,3.054326167E-3
3.956563650E0,-1.221730490E-3,-3.115412779E-2,1.832595794E-3
3.958633534E0,-2.443460980E-3,-2.993239649E-2,0.000000000E0
3.960668996E0,-3.054326167E-3,-2.871066704E-2,3.054326167E-3
3.962738688E0,-1.221730490E-3,-3.115412779E-2,0.000000000E0
3.964773919E0,-3.054326167E-3,-2.748893574E-2,-6.108652451E-4
3.966843496E0,-4.276056774E-3,-2.687807009E-2,1.221730490E-3
3.968878342E0,-6.108652335E-3,-2.687807009E-2,-6.108652451E-4
3.970947265E0,-6.108652335E-3,-2.871066704E-2,6.108652451E-4
3.973030573E0,-7.330383174E-3,-2.932153270E-2,-1.832595794E-3
3.975051880E0,-5.497787148E-3,-2.687807009E-2,-1.221730490E-3
3.977086765E0,-8.552113548E-3,-2.809980139E-2,-6.108652451E-4
3.979156611E0,-1.099557430E-2,-3.054326214E-2,-6.108652451E-4
3.981191457E0,-7.330383174E-3,-2.932153270E-2,-1.832595794E-3
3.983307265E0,-9.773843922E-3,-3.054326214E-2,0.000000000E0
3.985295573E0,-1.160643995E-2,-3.054326214E-2,1.221730490E-3
3.987364919E0,-1.099557430E-2,-2.993239649E-2,6.108652451E-4
3.989399457E0,-1.160643995E-2,-3.298672289E-2,1.832595794E-3
3.991468150E0,-1.404990070E-2,-3.359758854E-2,2.443460980E-3
3.993549996E0,-1.527163107E-2,-3.298672289E-2,0.000000000E0
3.995571303E0,-1.588249579E-2,-3.359758854E-2,2.443460980E-3
3.997605688E0,-1.771509275E-2,-3.420845419E-2,4.276056774E-3
3.999675073E0,-1.954768784E-2,-3.543018550E-2,3.665191587E-3
4.001709534E0,-1.771509275E-2,-3.298672289E-2,2.443460980E-3
4.003778996E0,-1.954768784E-2,-3.420845419E-2,4.886921961E-3
4.005812919E0,-2.015855350E-2,-3.237585723E-2,4.886921961E-3
4.007882688E0,-2.015855350E-2,-3.176499158E-2,4.886921961E-3
4.009917226E0,-1.893682219E-2,-3.176499158E-2,2.443460980E-3
4.011986803E0,-2.076941915E-2,-3.054326214E-2,1.832595794E-3
4.014068996E0,-2.260201424E-2,-3.054326214E-2,7.330383174E-3
4.016091226E0,-2.443460934E-2,-2.809980139E-2,1.832595794E-3
4.018125419E0,-2.382374369E-2,-2.871066704E-2,4.276056774E-3
4.020194149E0,-2.443460934E-2,-2.748893574E-2,3.665191587E-3
4.022228726E0,-2.076941915E-2,-2.748893574E-2,1.832595794E-3
4.024344111E0,-2.382374369E-2,-2.565634064E-2,2.443460980E-3
4.026332534E0,-2.199114859E-2,-2.626720630E-2,3.054326167E-3
4.028402726E0,-2.321287990E-2,-2.626720630E-2,0.000000000E0
4.030437457E0,-2.321287990E-2,-2.626720630E-2,-6.108652451E-4
4.032506765E0,-2.199114859E-2,-2.687807009E-2,-6.108652451E-4
4.034588457E0,-2.382374369E-2,-2.748893574E-2,3.054326167E-3
4.036610572E0,-2.626720630E-2,-2.871066704E-2,6.108652451E-4
4.038645303E0,-2.199114859E-2,-2.932153270E-2,-6.108652451E-4
4.040714649E0,-2.015855350E-2,-2.932153270E-2,6.108652451E-4
4.042749996E0,-2.382374369E-2,-2.932153270E-2,1.832595794E-3
4.044819496E0,-2.565634064E-2,-2.932153270E-2,-6.108652451E-4
4.046854303E0,-2.443460934E-2,-2.871066704E-2,1.221730490E-3
4.048923457E0,-2.504547499E-2,-2.932153270E-2,-1.832595794E-3
4.050958149E0,-2.443460934E-2,-2.871066704E-2,-1.832595794E-3
4.053027457E0,-2.443460934E-2,-2.748893574E-2,1.221730490E-3
4.055109611E0,-2.443460934E-2,-2.748893574E-2,1.221730490E-3
4.057131995E0,-2.443460934E-2,-2.626720630E-2,-1.832595794E-3
4.059621226E0,-2.626720630E-2,-2.565634064E-2,-3.665191587E-3
4.061213534E0,-2.565634064E-2,-2.443460934E-2,-4.276056774E-3
4.063213842E0,-2.626720630E-2,-2.443460934E-2,-2.443460980E-3
