"Time (s)","Gyroscope x (rad/s)","Gyroscope y (rad/s)","Gyroscope z (rad/s)"
1.288409700E-2,-1.258382350E-1,2.321287990E-1,7.941247895E-3
1.389300000E-2,-1.178969890E-1,2.455678284E-1,1.466076635E-2
1.669267400E-2,-1.105666086E-1,2.516764700E-1,1.832595654E-2
1.792676900E-2,-9.407325089E-2,2.700024247E-1,1.160643995E-2
2.083328900E-2,-8.307767659E-2,2.834414840E-1,2.382374369E-2
2.200846100E-2,-7.513642311E-2,2.913827300E-1,2.321287990E-2
2.454615400E-2,-5.803219974E-2,3.115412891E-1,1.588249579E-2
2.622973100E-2,-5.070181563E-2,3.280346394E-1,2.626720630E-2
2.870111500E-2,-4.398229718E-2,3.414736688E-1,2.076941915E-2
3.030592300E-2,-3.787364438E-2,3.524692357E-1,2.321287990E-2
3.280361500E-2,-3.115412779E-2,3.683517575E-1,2.871066704E-2
3.430953800E-2,-2.504547499E-2,3.836233616E-1,2.687807009E-2
3.680976900E-2,-2.382374369E-2,3.927863538E-1,2.076941915E-2
3.843365400E-2,-1.832595654E-2,4.098905921E-1,3.298672289E-2
4.131282800E-2,-1.832595654E-2,4.257730842E-1,2.932153270E-2
4.255650000E-2,-1.893682219E-2,4.318817258E-1,2.626720630E-2
4.536557700E-2,-2.199114859E-2,4.508185387E-1,2.871066704E-2
4.666650000E-2,-2.748893574E-2,4.624249935E-1,2.871066704E-2
4.952186600E-2,-2.871066704E-2,4.703662395E-1,2.260201424E-2
5.082484600E-2,-3.726277873E-2,4.819726646E-1,2.748893574E-2
5.362490500E-2,-4.337143153E-2,4.966334403E-1,2.076941915E-2
5.483834600E-2,-4.948008433E-2,5.076290369E-1,1.649336144E-2
5.772844300E-2,-5.925392732E-2,5.308418870E-1,1.954768784E-2
5.895826900E-2,-6.963863969E-2,5.540547967E-1,1.282817032E-2
6.187028900E-2,-7.391469181E-2,5.681046844E-1,6.719517522E-3
6.314600000E-2,-7.574728876E-2,5.742133260E-1,7.330383174E-3
6.595309700E-2,-8.124507964E-2,5.833762884E-1,6.108652451E-4
6.715196100E-2,-8.796459436E-2,5.907067060E-1,-3.665191587E-3
7.005617400E-2,-8.918632567E-2,5.974262357E-1,-2.443460980E-3
7.134315400E-2,-9.651670605E-2,6.084218025E-1,-1.038470957E-2
7.415886600E-2,-1.044579595E-1,6.200281978E-1,-1.160643995E-2
7.539446100E-2,-1.056796908E-1,6.279694438E-1,-1.343903504E-2
7.826109700E-2,-1.123992056E-1,6.426302195E-1,-1.771509275E-2
7.950776900E-2,-1.185078546E-1,6.591235995E-1,-2.138028294E-2
8.236305800E-2,-1.227839142E-1,6.707300544E-1,-2.382374369E-2
8.379334600E-2,-1.282816976E-1,6.872233748E-1,-2.687807009E-2
8.641223100E-2,-1.398881376E-1,7.110471725E-1,-3.420845419E-2
8.776184600E-2,-1.514945775E-1,7.409795523E-1,-4.031710699E-2
9.022742300E-2,-1.502728462E-1,7.556403279E-1,-4.398229718E-2
9.195826900E-2,-1.637118906E-1,7.898487449E-1,-5.009094998E-2
9.443326900E-2,-1.716531366E-1,8.179485798E-1,-5.681046844E-2
9.592200000E-2,-1.771509200E-1,8.295549750E-1,-6.169738993E-2
9.849261500E-2,-1.905899495E-1,8.503243923E-1,-6.536258012E-2
1.000539230E-1,-1.991420686E-1,8.784242272E-1,-7.574728876E-2
1.029167890E-1,-2.064724565E-1,8.930850029E-1,-7.819075137E-2
1.042887690E-1,-2.211332172E-1,9.236282706E-1,-8.613199741E-2
1.067430000E-1,-2.339613885E-1,9.596692920E-1,-9.590584040E-2
1.082517310E-1,-2.437352389E-1,9.798278809E-1,-9.712757170E-2
1.108038080E-1,-2.541199327E-1,1.010982037E0,-1.111774743E-1
1.124316920E-1,-2.632829249E-1,1.036638379E0,-1.252273768E-1
1.149362690E-1,-2.761110961E-1,1.058018565E0,-1.386664063E-1
1.164394230E-1,-2.791654170E-1,1.068403363E0,-1.447750628E-1
1.189685770E-1,-2.871066630E-1,1.094059706E0,-1.606575549E-1
1.205791150E-1,-2.895501256E-1,1.106276989E0,-1.710422635E-1
1.233985200E-1,-2.901609838E-1,1.111163855E0,-1.783726513E-1
1.247256540E-1,-2.901609838E-1,1.115439892E0,-1.899790913E-1
1.275126350E-1,-2.901609838E-1,1.124602914E0,-1.954768747E-1
1.287759610E-1,-2.901609838E-1,1.132544160E0,-1.979203373E-1
1.316138270E-1,-2.816088796E-1,1.166752577E0,-2.009746730E-1
1.329776150E-1,-2.791654170E-1,1.220508814E0,-1.942551434E-1
1.357160970E-1,-2.773328125E-1,1.249830246E0,-1.924225539E-1
1.369765000E-1,-2.712241709E-1,1.291980028E0,-1.857030392E-1
1.398185200E-1,-2.626720667E-1,1.324966669E0,-1.789835095E-1
1.410751150E-1,-2.565633953E-1,1.328631878E0,-1.753183305E-1
1.439585200E-1,-2.553416789E-1,1.324355841E0,-1.722639948E-1
1.453505000E-1,-2.461786866E-1,1.291980028E0,-1.728748679E-1
1.480496350E-1,-2.351831198E-1,1.229671717E0,-1.722639948E-1
1.493230380E-1,-2.266310006E-1,1.191187263E0,-1.734857261E-1
1.521510970E-1,-2.101376504E-1,1.108109593E0,-1.710422635E-1
1.535041540E-1,-1.905899495E-1,1.014036298E0,-1.679879427E-1
1.562534810E-1,-1.789835095E-1,9.627236128E-1,-1.679879427E-1
1.575175380E-1,-1.588249654E-1,8.643743396E-1,-1.655444801E-1
1.603552890E-1,-1.380555481E-1,7.935139537E-1,-1.576032341E-1
1.616159610E-1,-1.276708394E-1,7.733554244E-1,-1.539380401E-1
1.644590580E-1,-1.117883399E-1,7.415903807E-1,-1.398881376E-1
1.657863840E-1,-1.014036313E-1,7.709119320E-1,-1.191187203E-1
1.685441150E-1,-1.007927656E-1,8.747590184E-1,-9.651670605E-2
1.698460000E-1,-9.651670605E-2,9.425650835E-1,-8.491026610E-2
1.722964230E-1,-1.020144969E-1,1.110553026E0,-6.169738993E-2
1.739685000E-1,-1.160643995E-1,1.274875760E0,-5.131268129E-2
1.765121920E-1,-1.270599663E-1,1.345736146E0,-5.070181563E-2
1.780251150E-1,-1.441642046E-1,1.468520045E0,-5.131268129E-2
1.806009610E-1,-1.563815027E-1,1.557095528E0,-5.986479297E-2
1.821515380E-1,-1.643227488E-1,1.582141042E0,-6.230825558E-2
1.850192500E-1,-1.685988009E-1,1.604132175E0,-7.452555746E-2
1.862634230E-1,-1.624901593E-1,1.571145415E0,-7.635815442E-2
1.888353460E-1,-1.600466967E-1,1.536326051E0,-7.513642311E-2
1.903802310E-1,-1.466076523E-1,1.453859329E0,-7.086037099E-2
1.930043070E-1,-1.301143020E-1,1.365894675E0,-5.986479297E-2
1.945455770E-1,-1.203404516E-1,1.302364707E0,-4.092797264E-2
1.972920580E-1,-1.166752651E-1,1.287093043E0,-3.359758854E-2
1.985738460E-1,-1.032362282E-1,1.279151797E0,-2.565634064E-2
2.010718460E-1,-1.020144969E-1,1.276708364E0,-1.038470957E-2
2.027428840E-1,-1.020144969E-1,1.274875760E0,-7.330383174E-3
2.055230960E-1,-1.062905490E-1,1.248608589E0,-3.665191587E-3
2.067988840E-1,-1.105666086E-1,1.195463300E0,2.443460980E-3
2.096259810E-1,-1.166752651E-1,1.157589674E0,4.276056774E-3
2.108791150E-1,-1.264491081E-1,1.073290229E0,4.886921961E-3
2.137297120E-1,-1.392772794E-1,9.786061049E-1,7.330383174E-3
2.151040380E-1,-1.417207420E-1,9.291260242E-1,5.497787148E-3
2.178322890E-1,-1.478293836E-1,8.289441466E-1,6.108652451E-4
2.190545000E-1,-1.521054506E-1,7.287622094E-1,-6.108652451E-4
2.219345580E-1,-1.533271819E-1,6.334672570E-1,-1.466076635E-2
2.231785000E-1,-1.527163088E-1,5.876523852E-1,-1.343903504E-2
2.260748270E-1,-1.453859210E-1,5.033529401E-1,-1.710422710E-2
2.273666920E-1,-1.435533315E-1,4.214970171E-1,-2.321287990E-2
2.301510190E-1,-1.435533315E-1,3.842342496E-1,-2.076941915E-2
2.313807690E-1,-1.398881376E-1,3.090978265E-1,-2.321287990E-2
2.342536730E-1,-1.337794960E-1,2.364048511E-1,-2.809980139E-2
2.355442690E-1,-1.325577646E-1,2.028072625E-1,-2.504547499E-2
2.383561730E-1,-1.319468915E-1,1.356120855E-1,-1.954768784E-2
2.396401540E-1,-1.343903542E-1,7.574728876E-2,-1.771509275E-2
2.424584810E-1,-1.325577646E-1,5.009094998E-2,-1.649336144E-2
2.438059610E-1,-1.319468915E-1,3.054326167E-3,-7.941247895E-3
2.465752500E-1,-1.319468915E-1,-3.054326214E-2,-6.719517522E-3
2.479094610E-1,-1.325577646E-1,-5.436700583E-2,6.108652335E-3
2.506813270E-1,-1.301143020E-1,-6.047565863E-2,5.497787148E-3
2.520284610E-1,-1.288925707E-1,-6.291911751E-2,1.038470957E-2
2.545148840E-1,-1.270599663E-1,-5.681046844E-2,1.893682219E-2
2.561558840E-1,-1.246165112E-1,-5.009094998E-2,2.076941915E-2
2.587524610E-1,-1.233947799E-1,-2.809980139E-2,2.199114859E-2
2.603935770E-1,-1.191187203E-1,1.832595794E-3,2.809980139E-2
2.627043840E-1,-1.197295859E-1,1.649336144E-2,3.054326214E-2
2.642464230E-1,-1.185078546E-1,4.948008433E-2,3.909537569E-2
2.671310580E-1,-1.136209369E-1,8.491026610E-2,4.214970022E-2
2.683565770E-1,-1.117883399E-1,1.032362282E-1,4.276056588E-2
2.709459610E-1,-1.099557430E-1,1.392772794E-1,4.642575979E-2
2.724736920E-1,-1.081231460E-1,1.753183305E-1,5.070181563E-2
2.751138840E-1,-1.044579595E-1,2.095267773E-1,4.642575979E-2
2.766920380E-1,-1.026253626E-1,2.241875380E-1,5.070181563E-2
2.792334610E-1,-1.001819000E-1,2.504547536E-1,5.253441259E-2
2.806821920E-1,-9.590584040E-2,2.724458873E-1,5.009094998E-2
2.833520770E-1,-9.651670605E-2,2.809980214E-1,5.253441259E-2
2.847679230E-1,-9.101892263E-2,2.962696552E-1,5.558873713E-2
2.876162500E-1,-8.429940045E-2,3.084869385E-1,4.948008433E-2
2.888906920E-1,-8.246681094E-2,3.103195429E-1,5.253441259E-2
2.917309420E-1,-7.880161703E-2,3.152064681E-1,5.192354694E-2
2.930197690E-1,-7.330382615E-2,3.170390725E-1,5.070181563E-2
2.958332110E-1,-7.208210230E-2,3.176499307E-1,5.070181563E-2
2.972490000E-1,-6.414084882E-2,3.164281845E-1,4.886921868E-2
2.999355960E-1,-5.986479297E-2,3.121521473E-1,5.009094998E-2
3.012505770E-1,-5.925392732E-2,3.097086847E-1,4.948008433E-2
3.040369810E-1,-5.131268129E-2,3.060434759E-1,5.009094998E-2
3.053611150E-1,-4.764748737E-2,2.993239760E-1,4.886921868E-2
3.081776730E-1,-4.276056588E-2,2.913827300E-1,5.070181563E-2
3.095413840E-1,-4.337143153E-2,2.895501256E-1,4.825835302E-2
3.122689040E-1,-3.787364438E-2,2.803871334E-1,4.886921868E-2
3.135444610E-1,-3.726277873E-2,2.730567753E-1,4.948008433E-2
3.163706730E-1,-3.359758854E-2,2.718350291E-1,5.009094998E-2
3.177043460E-1,-3.604105115E-2,2.645046413E-1,4.764748737E-2
3.204728270E-1,-3.481931984E-2,2.559525371E-1,5.009094998E-2
3.217209610E-1,-3.420845419E-2,2.541199327E-1,5.070181563E-2
3.245757110E-1,-3.481931984E-2,2.510656118E-1,4.581489414E-2
3.258459230E-1,-3.420845419E-2,2.461786866E-1,4.703662544E-2
3.286789040E-1,-3.543018550E-2,2.425135076E-1,4.825835302E-2
3.299645380E-1,-4.031710699E-2,2.412917763E-1,4.642575979E-2
3.327962500E-1,-3.909537569E-2,2.357939780E-1,4.886921868E-2
3.340782300E-1,-4.214970022E-2,2.382374406E-1,4.703662544E-2
3.365610380E-1,-4.153883830E-2,2.364048511E-1,4.276056588E-2
3.382406530E-1,-4.581489414E-2,2.351831198E-1,4.703662544E-2
3.408597690E-1,-4.825835302E-2,2.339613885E-1,4.764748737E-2
3.422780380E-1,-4.764748737E-2,2.333505303E-1,4.703662544E-2
3.448672300E-1,-5.131268129E-2,2.327396572E-1,4.703662544E-2
3.463726150E-1,-5.436700583E-2,2.333505303E-1,4.642575979E-2
3.492437110E-1,-5.681046844E-2,2.315179259E-1,4.581489414E-2
3.504913840E-1,-5.925392732E-2,2.296853364E-1,4.703662544E-2
3.531378840E-1,-6.291911751E-2,2.290744632E-1,4.764748737E-2
3.545910000E-1,-6.414084882E-2,2.296853364E-1,4.459316283E-2
3.572324230E-1,-6.536258012E-2,2.284636050E-1,4.581489414E-2
3.587939230E-1,-7.208210230E-2,2.278527319E-1,4.642575979E-2
3.612752690E-1,-7.452555746E-2,2.266310006E-1,4.520402849E-2
3.628145380E-1,-8.002334833E-2,2.266310006E-1,4.886921868E-2
3.653514610E-1,-8.185594529E-2,2.278527319E-1,4.825835302E-2
3.669550380E-1,-8.918632567E-2,2.272418737E-1,4.520402849E-2
3.697268650E-1,-8.979719132E-2,2.254092693E-1,4.703662544E-2
3.710052300E-1,-9.468411654E-2,2.272418737E-1,4.642575979E-2
3.738415570E-1,-9.957103431E-2,2.260201424E-1,4.520402849E-2
3.751705000E-1,-1.014036313E-1,2.296853364E-1,4.581489414E-2
3.779430570E-1,-1.087340117E-1,2.321287990E-1,4.581489414E-2
3.793102690E-1,-1.117883399E-1,2.364048511E-1,4.337143153E-2
3.820460570E-1,-1.148426682E-1,2.364048511E-1,4.581489414E-2
3.833074230E-1,-1.172861308E-1,2.412917763E-1,4.276056588E-2
3.861488650E-1,-1.203404516E-1,2.455678284E-1,4.337143153E-2
3.874070000E-1,-1.233947799E-1,2.486221492E-1,4.031710699E-2
3.902901340E-1,-1.276708394E-1,2.516764700E-1,4.092797264E-2
3.916506530E-1,-1.295034289E-1,2.541199327E-1,3.543018550E-2
3.943795960E-1,-1.301143020E-1,2.547308207E-1,3.604105115E-2
3.957271150E-1,-1.319468915E-1,2.565633953E-1,3.665191308E-2
3.984811340E-1,-1.325577646E-1,2.577851415E-1,3.115412779E-2
3.998867690E-1,-1.331686229E-1,2.571742535E-1,3.237585723E-2
4.025830570E-1,-1.313360333E-1,2.565633953E-1,3.176499158E-2
4.039458840E-1,-1.313360333E-1,2.559525371E-1,2.871066704E-2
4.066845960E-1,-1.301143020E-1,2.528982162E-1,2.809980139E-2
4.079413840E-1,-1.270599663E-1,2.541199327E-1,2.871066704E-2
4.107860960E-1,-1.258382350E-1,2.504547536E-1,2.626720630E-2
4.121220000E-1,-1.191187203E-1,2.474004179E-1,2.626720630E-2
4.149013650E-1,-1.117883399E-1,2.443460971E-1,1.893682219E-2
4.162213840E-1,-1.093448773E-1,2.419026345E-1,2.199114859E-2
4.189079230E-1,-1.032362282E-1,2.364048511E-1,2.076941915E-2
4.203648840E-1,-9.651670605E-2,2.327396572E-1,1.710422710E-2
4.229058070E-1,-9.162978828E-2,2.315179259E-1,1.710422710E-2
4.244174610E-1,-8.491026610E-2,2.266310006E-1,1.466076635E-2
4.268888840E-1,-7.880161703E-2,2.180788964E-1,1.649336144E-2
4.285338840E-1,-7.574728876E-2,2.156354338E-1,1.221730467E-2
4.313470950E-1,-6.902777404E-2,2.076941878E-1,9.773843922E-3
4.325903840E-1,-6.169738993E-2,2.009746730E-1,8.552113548E-3
4.354229800E-1,-5.986479297E-2,1.973094791E-1,9.162978269E-3
4.367353070E-1,-5.558873713E-2,1.863138974E-1,2.443460980E-3
4.393984230E-1,-4.886921868E-2,1.838704348E-1,2.443460980E-3
4.409824610E-1,-4.153883830E-2,1.771509200E-1,-1.221730490E-3
4.436272490E-1,-3.970624134E-2,1.740965992E-1,-4.886921961E-3
4.449352690E-1,-3.420845419E-2,1.661553532E-1,-1.832595794E-3
4.474176150E-1,-2.871066704E-2,1.612684280E-1,-8.552113548E-3
4.490412690E-1,-2.748893574E-2,1.576032341E-1,-9.162978269E-3
4.518566720E-1,-2.565634064E-2,1.539380401E-1,-9.773843922E-3
4.532127300E-1,-2.015855350E-2,1.502728462E-1,-1.404990070E-2
4.559740950E-1,-2.015855350E-2,1.496619880E-1,-1.649336144E-2
4.573171150E-1,-1.893682219E-2,1.484402567E-1,-1.771509275E-2
4.600761340E-1,-1.649336144E-2,1.478293836E-1,-1.771509275E-2
4.614305000E-1,-1.588249579E-2,1.502728462E-1,-2.504547499E-2
4.641785180E-1,-1.527163107E-2,1.490511149E-1,-2.382374369E-2
4.654684610E-1,-1.404990070E-2,1.527163088E-1,-2.504547499E-2
4.682810950E-1,-1.588249579E-2,1.582140923E-1,-2.809980139E-2
4.696135380E-1,-1.404990070E-2,1.624901593E-1,-2.565634064E-2
4.724217880E-1,-1.527163107E-2,1.710422635E-1,-3.054326214E-2
4.738250000E-1,-1.466076635E-2,1.783726513E-1,-2.932153270E-2
4.765135180E-1,-1.649336144E-2,1.850921661E-1,-2.687807009E-2
4.778501920E-1,-1.404990070E-2,1.979203373E-1,-3.298672289E-2
4.806161720E-1,-1.404990070E-2,2.083050460E-1,-3.481931984E-2
4.820467690E-1,-1.343903504E-2,2.119702399E-1,-3.237585723E-2
4.847189800E-1,-1.282817032E-2,2.260201424E-1,-3.787364438E-2
4.862080000E-1,-9.773843922E-3,2.327396572E-1,-3.909537569E-2
4.888220950E-1,-1.221730467E-2,2.376265824E-1,-3.543018550E-2
4.901026150E-1,-5.497787148E-3,2.437352389E-1,-4.092797264E-2
4.929246340E-1,-1.832595794E-3,2.492330223E-1,-3.848451003E-2
4.943726920E-1,1.221730490E-3,2.516764700E-1,-3.909537569E-2
4.970400180E-1,4.276056774E-3,2.516764700E-1,-4.214970022E-2
4.983484230E-1,1.160643995E-2,2.522873580E-1,-4.459316283E-2
5.008593840E-1,1.832595654E-2,2.467895597E-1,-4.337143153E-2
5.025570000E-1,1.893682219E-2,2.425135076E-1,-4.398229718E-2
5.049990000E-1,2.504547499E-2,2.333505303E-1,-4.214970022E-2
5.065297690E-1,3.054326214E-2,2.205223590E-1,-4.398229718E-2
5.090732690E-1,3.543018550E-2,2.156354338E-1,-4.581489414E-2
5.107631530E-1,3.909537569E-2,2.003637999E-1,-4.153883830E-2
5.134926720E-1,4.825835302E-2,1.869247705E-1,-4.398229718E-2
5.148413460E-1,5.070181563E-2,1.802052408E-1,-4.520402849E-2
5.173123840E-1,5.558873713E-2,1.655444801E-1,-4.459316283E-2
5.188176150E-1,6.291911751E-2,1.514945775E-1,-4.398229718E-2
5.216707870E-1,6.780604273E-2,1.374446750E-1,-4.398229718E-2
5.231033460E-1,7.208210230E-2,1.319468915E-1,-4.642575979E-2
5.255986150E-1,7.635815442E-2,1.191187203E-1,-4.825835302E-2
5.272028070E-1,7.880161703E-2,1.062905490E-1,-5.070181563E-2
5.296339230E-1,8.002334833E-2,9.957103431E-2,-4.703662544E-2
5.311404230E-1,8.429940045E-2,9.224065393E-2,-4.825835302E-2
5.339784410E-1,8.552113175E-2,8.491026610E-2,-5.070181563E-2
5.355911530E-1,8.429940045E-2,8.124507964E-2,-4.886921868E-2
5.380928260E-1,8.552113175E-2,7.941248268E-2,-5.131268129E-2
5.393799610E-1,8.368854225E-2,7.880161703E-2,-5.070181563E-2
5.421946720E-1,8.368854225E-2,7.880161703E-2,-5.314527452E-2
5.435149610E-1,8.185594529E-2,8.063421398E-2,-5.314527452E-2
5.462969030E-1,7.880161703E-2,8.552113175E-2,-5.436700583E-2
5.475650380E-1,7.391469181E-2,9.468411654E-2,-5.742133409E-2
5.503984030E-1,7.208210230E-2,9.834930301E-2,-5.925392732E-2
5.516712300E-1,6.536258012E-2,1.081231460E-1,-5.803219974E-2
5.545389800E-1,6.047565863E-2,1.197295859E-1,-5.803219974E-2
5.558439610E-1,5.925392732E-2,1.252273768E-1,-5.864306539E-2
5.586287490E-1,5.497787148E-2,1.392772794E-1,-5.742133409E-2
5.599797690E-1,4.886921868E-2,1.521054506E-1,-5.619960278E-2
5.627316720E-1,4.214970022E-2,1.557706445E-1,-5.375614017E-2
5.643849990E-1,3.848451003E-2,1.692096740E-1,-5.497787148E-2
5.668347490E-1,3.176499158E-2,1.820378453E-1,-5.192354694E-2
5.682780380E-1,2.809980139E-2,1.857030392E-1,-5.131268129E-2
5.709379030E-1,2.199114859E-2,1.905899495E-1,-5.009094998E-2
5.724059610E-1,1.832595654E-2,1.973094791E-1,-4.520402849E-2
5.750403260E-1,1.099557430E-2,2.009746730E-1,-4.276056588E-2
5.763901530E-1,9.162978269E-3,2.003637999E-1,-4.092797264E-2
5.791564410E-1,3.054326167E-3,1.973094791E-1,-3.848451003E-2
5.804022300E-1,-4.886921961E-3,1.948660165E-1,-3.543018550E-2
5.829523460E-1,-6.108652335E-3,1.905899495E-1,-3.481931984E-2
5.846151920E-1,-1.160643995E-2,1.844813079E-1,-2.748893574E-2
5.870846530E-1,-1.649336144E-2,1.759291887E-1,-2.687807009E-2
5.886138460E-1,-1.954768784E-2,1.704314053E-1,-2.504547499E-2
5.911001530E-1,-2.443460934E-2,1.569923609E-1,-2.076941915E-2
5.927028070E-1,-3.359758854E-2,1.423316002E-1,-1.710422710E-2
5.956070560E-1,-3.787364438E-2,1.307251602E-1,-1.466076635E-2
5.969564990E-1,-4.092797264E-2,1.221730486E-1,-1.343903504E-2
5.994545380E-1,-4.642575979E-2,1.069014147E-1,-1.099557430E-2
6.009713840E-1,-5.192354694E-2,9.162978828E-2,-4.276056774E-3
6.035430760E-1,-5.619960278E-2,8.246681094E-2,-4.276056774E-3
6.052226530E-1,-5.986479297E-2,6.719517708E-2,-1.832595794E-3
6.078874790E-1,-6.352998316E-2,5.558873713E-2,2.443460980E-3
6.093879610E-1,-6.963863969E-2,4.886921868E-2,3.054326167E-3
6.116676530E-1,-7.269296050E-2,3.848451003E-2,3.665191587E-3
6.132526530E-1,-7.757988572E-2,3.054326214E-2,7.330383174E-3
6.160929020E-1,-7.880161703E-2,2.687807009E-2,9.773843922E-3
6.174183460E-1,-8.307767659E-2,2.015855350E-2,6.108652335E-3
6.202085560E-1,-8.491026610E-2,1.466076635E-2,1.099557430E-2
6.214663460E-1,-8.613199741E-2,1.343903504E-2,9.162978269E-3
6.243115560E-1,-8.552113175E-2,9.773843922E-3,7.941247895E-3
6.256953460E-1,-8.735372871E-2,6.719517522E-3,8.552113548E-3
6.284143640E-1,-8.368854225E-2,7.941247895E-3,4.276056774E-3
6.297629990E-1,-8.552113175E-2,6.108652335E-3,6.719517522E-3
6.325170950E-1,-8.002334833E-2,9.162978269E-3,5.497787148E-3
6.338030760E-1,-7.574728876E-2,1.221730467E-2,2.443460980E-3
6.366591330E-1,-7.024950534E-2,1.466076635E-2,0.000000000E0
6.380047300E-1,-6.597344577E-2,1.710422710E-2,6.108652451E-4
6.407480560E-1,-5.558873713E-2,2.138028294E-2,0.000000000E0
6.420150380E-1,-5.131268129E-2,2.138028294E-2,0.000000000E0
6.448507490E-1,-4.398229718E-2,2.504547499E-2,-1.221730490E-3
6.462601920E-1,-3.298672289E-2,2.871066704E-2,-2.443460980E-3
6.489542100E-1,-2.443460934E-2,2.809980139E-2,-4.886921961E-3
6.502898460E-1,-1.343903504E-2,3.176499158E-2,-4.886921961E-3
6.530579790E-1,6.108652451E-4,3.298672289E-2,-6.719517522E-3
6.544768070E-1,1.160643995E-2,3.420845419E-2,-5.497787148E-3
6.571762870E-1,1.649336144E-2,3.176499158E-2,-7.330383174E-3
6.585561530E-1,3.237585723E-2,3.420845419E-2,-9.162978269E-3
6.612922100E-1,4.153883830E-2,3.420845419E-2,-1.221730467E-2
6.627999220E-1,5.131268129E-2,3.420845419E-2,-1.710422710E-2
6.651090760E-1,6.291911751E-2,3.176499158E-2,-1.893682219E-2
6.670076530E-1,7.391469181E-2,3.359758854E-2,-2.138028294E-2
6.692717690E-1,7.819075137E-2,3.359758854E-2,-2.687807009E-2
6.711849220E-1,8.979719132E-2,2.932153270E-2,-2.993239649E-2
6.732592300E-1,9.957103431E-2,2.687807009E-2,-3.726277873E-2
6.749006530E-1,1.032362282E-1,2.565634064E-2,-3.970624134E-2
6.777440950E-1,1.111774743E-1,2.382374369E-2,-5.131268129E-2
6.794611530E-1,1.209513173E-1,2.260201424E-2,-5.803219974E-2
6.818215950E-1,1.288925707E-1,2.076941915E-2,-6.780604273E-2
6.831133070E-1,1.319468915E-1,2.138028294E-2,-7.635815442E-2
6.859250560E-1,1.368338168E-1,1.649336144E-2,-8.124507964E-2
6.877266150E-1,1.398881376E-1,1.160643995E-2,-9.040805697E-2
6.900285180E-1,1.417207420E-1,1.099557430E-2,-9.407325089E-2
6.912894610E-1,1.453859210E-1,7.330383174E-3,-1.026253626E-1
6.939156530E-1,1.441642046E-1,6.719517522E-3,-1.087340117E-1
6.954358840E-1,1.423316002E-1,4.886921961E-3,-1.136209369E-1
6.982608640E-1,1.429424733E-1,6.108652451E-4,-1.160643995E-1
6.996047690E-1,1.417207420E-1,6.108652451E-4,-1.209513173E-1
7.023773640E-1,1.398881376E-1,-6.108652451E-4,-1.276708394E-1
7.037318070E-1,1.343903542E-1,-2.443460980E-3,-1.288925707E-1
7.064814410E-1,1.350012124E-1,-2.443460980E-3,-1.295034289E-1
7.078551150E-1,1.288925707E-1,-3.665191587E-3,-1.319468915E-1
7.105846710E-1,1.270599663E-1,-3.054326167E-3,-1.331686229E-1
7.119448460E-1,1.233947799E-1,-3.054326167E-3,-1.380555481E-1
7.146882100E-1,1.203404516E-1,-3.665191587E-3,-1.392772794E-1
7.160947300E-1,1.160643995E-1,-2.443460980E-3,-1.404990107E-1
7.188306710E-1,1.117883399E-1,-2.443460980E-3,-1.441642046E-1
7.209024220E-1,1.075122803E-1,-4.276056774E-3,-1.478293836E-1
7.229220170E-1,1.056796908E-1,-4.886921961E-3,-1.453859210E-1
7.248660380E-1,1.069014147E-1,-3.665191587E-3,-1.490511149E-1
7.270265940E-1,9.957103431E-2,-7.941247895E-3,-1.478293836E-1
7.286219990E-1,9.712757170E-2,-9.162978269E-3,-1.478293836E-1
7.311299400E-1,9.590584040E-2,-9.773843922E-3,-1.472185254E-1
7.324663840E-1,9.162978828E-2,-1.160643995E-2,-1.472185254E-1
7.352330560E-1,9.040805697E-2,-1.527163107E-2,-1.435533315E-1
7.365990380E-1,8.857546002E-2,-1.710422710E-2,-1.441642046E-1
7.393361330E-1,8.307767659E-2,-2.321287990E-2,-1.435533315E-1
7.407400380E-1,7.880161703E-2,-2.932153270E-2,-1.343903542E-1
7.434433840E-1,7.880161703E-2,-3.176499158E-2,-1.350012124E-1
7.447984610E-1,7.208210230E-2,-3.726277873E-2,-1.325577646E-1
7.472375380E-1,6.780604273E-2,-4.214970022E-2,-1.282816976E-1
7.489946920E-1,6.780604273E-2,-4.642575979E-2,-1.215621829E-1
7.514994220E-1,6.108652428E-2,-5.375614017E-2,-1.258382350E-1
7.529549220E-1,5.619960278E-2,-5.864306539E-2,-1.197295859E-1
7.554408070E-1,5.131268129E-2,-6.230825558E-2,-1.178969890E-1
7.571432690E-1,4.398229718E-2,-6.597344577E-2,-1.178969890E-1
7.599042480E-1,4.031710699E-2,-7.024950534E-2,-1.148426682E-1
7.614036150E-1,3.298672289E-2,-7.635815442E-2,-1.130100712E-1
7.639797870E-1,2.993239649E-2,-7.880161703E-2,-1.130100712E-1
7.653620760E-1,2.260201424E-2,-8.307767659E-2,-1.081231460E-1
7.679554610E-1,1.771509275E-2,-8.735372871E-2,-1.087340117E-1
7.696159220E-1,1.282817032E-2,-8.796459436E-2,-1.093448773E-1
7.719485380E-1,4.886921961E-3,-9.346238524E-2,-1.069014147E-1
7.734943840E-1,-1.221730490E-3,-9.346238524E-2,-1.087340117E-1
7.760469610E-1,-6.719517522E-3,-9.773843735E-2,-1.069014147E-1
7.775988070E-1,-1.099557430E-2,-9.957103431E-2,-1.050688252E-1
7.803898630E-1,-1.771509275E-2,-1.007927656E-1,-1.050688252E-1
7.816896530E-1,-2.382374369E-2,-1.026253626E-1,-1.075122803E-1
7.845073250E-1,-2.260201424E-2,-1.044579595E-1,-1.062905490E-1
7.859175380E-1,-2.993239649E-2,-1.032362282E-1,-1.044579595E-1
7.886097480E-1,-3.359758854E-2,-1.044579595E-1,-1.014036313E-1
7.899671530E-1,-3.359758854E-2,-1.038470939E-1,-1.026253626E-1
7.927125940E-1,-3.787364438E-2,-1.044579595E-1,-1.014036313E-1
7.940437300E-1,-3.909537569E-2,-1.026253626E-1,-9.834930301E-2
7.968155560E-1,-3.970624134E-2,-1.026253626E-1,-9.712757170E-2
7.983564990E-1,-4.276056588E-2,-1.032362282E-1,-9.590584040E-2
8.009567090E-1,-4.703662544E-2,-1.001819000E-1,-8.735372871E-2
8.027606150E-1,-4.642575979E-2,-1.026253626E-1,-8.674286306E-2
8.050469790E-1,-4.825835302E-2,-1.026253626E-1,-8.429940045E-2
8.062924610E-1,-4.825835302E-2,-1.020144969E-1,-7.941248268E-2
8.091498250E-1,-4.764748737E-2,-1.026253626E-1,-7.574728876E-2
8.105068070E-1,-4.825835302E-2,-1.020144969E-1,-7.696902007E-2
8.132524020E-1,-4.886921868E-2,-1.020144969E-1,-7.024950534E-2
8.145296920E-1,-4.886921868E-2,-9.957103431E-2,-6.475171447E-2
8.173555940E-1,-4.886921868E-2,-9.957103431E-2,-6.475171447E-2
8.187045760E-1,-4.948008433E-2,-9.712757170E-2,-6.108652428E-2
8.214593250E-1,-4.642575979E-2,-9.468411654E-2,-5.558873713E-2
8.227594220E-1,-4.764748737E-2,-9.590584040E-2,-5.314527452E-2
8.255754020E-1,-4.520402849E-2,-9.224065393E-2,-5.375614017E-2
8.269434610E-1,-4.764748737E-2,-8.735372871E-2,-4.886921868E-2
8.293968840E-1,-4.764748737E-2,-8.735372871E-2,-4.520402849E-2
8.310561150E-1,-4.581489414E-2,-8.124507964E-2,-4.581489414E-2
8.335332300E-1,-4.642575979E-2,-7.635815442E-2,-3.970624134E-2
8.351184610E-1,-4.642575979E-2,-7.513642311E-2,-3.787364438E-2
8.375365760E-1,-4.886921868E-2,-7.024950534E-2,-3.665191308E-2
8.391776920E-1,-4.764748737E-2,-6.536258012E-2,-3.237585723E-2
8.420259400E-1,-4.948008433E-2,-6.047565863E-2,-3.298672289E-2
8.433052300E-1,-5.192354694E-2,-5.742133409E-2,-3.237585723E-2
8.460056150E-1,-5.253441259E-2,-5.131268129E-2,-2.565634064E-2
8.474245760E-1,-5.497787148E-2,-4.886921868E-2,-2.076941915E-2
8.502071710E-1,-5.681046844E-2,-4.520402849E-2,-2.321287990E-2
8.515933450E-1,-5.864306539E-2,-4.092797264E-2,-2.015855350E-2
8.541307300E-1,-6.169738993E-2,-3.665191308E-2,-1.893682219E-2
8.555738840E-1,-6.169738993E-2,-3.359758854E-2,-1.588249579E-2
8.580685380E-1,-6.169738993E-2,-3.237585723E-2,-1.710422710E-2
8.596731920E-1,-6.597344577E-2,-2.932153270E-2,-1.160643995E-2
8.625167860E-1,-6.963863969E-2,-2.871066704E-2,-1.221730467E-2
8.638060760E-1,-6.963863969E-2,-2.565634064E-2,-8.552113548E-3
8.666329400E-1,-7.086037099E-2,-2.443460934E-2,-4.276056774E-3
8.681316920E-1,-7.452555746E-2,-2.504547499E-2,-4.886921961E-3
8.707364400E-1,-7.513642311E-2,-2.565634064E-2,6.108652451E-4
8.721505760E-1,-7.757988572E-2,-2.626720630E-2,0.000000000E0
8.748397480E-1,-8.063421398E-2,-2.993239649E-2,6.108652451E-4
8.761716920E-1,-8.063421398E-2,-3.359758854E-2,4.886921961E-3
8.789430940E-1,-8.368854225E-2,-3.481931984E-2,6.108652451E-4
8.802597680E-1,-8.368854225E-2,-4.092797264E-2,-6.108652451E-4
8.830846710E-1,-8.735372871E-2,-4.276056588E-2,0.000000000E0
8.845549610E-1,-8.735372871E-2,-4.825835302E-2,6.108652451E-4
8.871763250E-1,-8.979719132E-2,-4.948008433E-2,-1.832595794E-3
8.885457300E-1,-9.224065393E-2,-5.070181563E-2,-6.108652451E-4
8.912790550E-1,-9.162978828E-2,-5.131268129E-2,-2.443460980E-3
8.928197680E-1,-9.712757170E-2,-5.192354694E-2,-1.221730490E-3
8.953821710E-1,-9.590584040E-2,-5.497787148E-2,-1.221730490E-3
8.970572300E-1,-9.712757170E-2,-5.681046844E-2,-3.054326167E-3
8.994845170E-1,-9.773843735E-2,-6.047565863E-2,-3.054326167E-3
9.007540760E-1,-9.773843735E-2,-6.047565863E-2,-3.665191587E-3
9.035883630E-1,-9.651670605E-2,-5.986479297E-2,-5.497787148E-3
9.050153840E-1,-9.834930301E-2,-5.681046844E-2,-5.497787148E-3
9.077034780E-1,-1.014036313E-1,-5.375614017E-2,-1.832595794E-3
9.091030760E-1,-9.896016866E-2,-5.436700583E-2,-6.108652335E-3
9.114815760E-1,-1.026253626E-1,-4.764748737E-2,-7.330383174E-3
9.131986150E-1,-1.038470939E-1,-4.214970022E-2,-7.330383174E-3
9.157359220E-1,-1.056796908E-1,-3.543018550E-2,-4.276056774E-3
9.171970760E-1,-1.044579595E-1,-3.359758854E-2,-6.108652335E-3
9.198279610E-1,-1.032362282E-1,-2.687807009E-2,-3.054326167E-3
9.213007300E-1,-1.026253626E-1,-2.015855350E-2,-6.108652451E-4
9.241520170E-1,-9.957103431E-2,-1.893682219E-2,6.108652451E-4
9.254866920E-1,-9.651670605E-2,-1.404990070E-2,1.832595794E-3
9.280319990E-1,-8.918632567E-2,-1.343903504E-2,7.330383174E-3
9.300744610E-1,-8.735372871E-2,-1.221730467E-2,1.038470957E-2
9.321519220E-1,-8.063421398E-2,-1.099557430E-2,1.954768784E-2
9.339413070E-1,-7.635815442E-2,-6.719517522E-3,2.443460934E-2
9.364327090E-1,-7.086037099E-2,-9.162978269E-3,2.871066704E-2
9.380504990E-1,-6.597344577E-2,-9.773843922E-3,3.848451003E-2
9.402023070E-1,-5.803219974E-2,-1.038470957E-2,4.153883830E-2
9.417799220E-1,-4.886921868E-2,-1.099557430E-2,4.703662544E-2
9.446617090E-1,-4.581489414E-2,-1.099557430E-2,5.253441259E-2
9.459983450E-1,-3.543018550E-2,-1.038470957E-2,5.864306539E-2
9.487805940E-1,-2.932153270E-2,-1.282817032E-2,6.719517708E-2
9.500433450E-1,-2.504547499E-2,-1.527163107E-2,6.780604273E-2
9.528831700E-1,-1.893682219E-2,-2.076941915E-2,7.452555746E-2
9.542531150E-1,-1.343903504E-2,-3.237585723E-2,8.246681094E-2
9.569852470E-1,-1.160643995E-2,-3.604105115E-2,8.552113175E-2
9.583325380E-1,-9.162978269E-3,-5.131268129E-2,9.040805697E-2
9.610884010E-1,-8.552113548E-3,-6.352998316E-2,9.529497474E-2
9.631222470E-1,-1.221730467E-2,-7.086037099E-2,9.651670605E-2
9.652285550E-1,-1.343903504E-2,-8.491026610E-2,9.651670605E-2
9.665872300E-1,-1.466076635E-2,-9.346238524E-2,9.651670605E-2
9.693175930E-1,-1.771509275E-2,-1.014036313E-1,9.285151958E-2
9.707963840E-1,-2.260201424E-2,-1.062905490E-1,9.162978828E-2
9.734194780E-1,-2.687807009E-2,-1.093448773E-1,8.674286306E-2
9.748379610E-1,-3.665191308E-2,-1.081231460E-1,7.941248268E-2
9.775212860E-1,-4.092797264E-2,-1.087340117E-1,7.635815442E-2
9.792588070E-1,-5.375614017E-2,-1.056796908E-1,7.147123665E-2
9.816226700E-1,-6.291911751E-2,-9.834930301E-2,6.108652428E-2
9.830314220E-1,-7.024950534E-2,-9.468411654E-2,5.925392732E-2
9.857260930E-1,-7.880161703E-2,-8.613199741E-2,5.131268129E-2
9.870477300E-1,-9.224065393E-2,-7.757988572E-2,4.825835302E-2
9.898323070E-1,-9.529497474E-2,-7.024950534E-2,4.214970022E-2
9.911321530E-1,-1.075122803E-1,-6.291911751E-2,3.420845419E-2
9.936422300E-1,-1.154535338E-1,-5.497787148E-2,2.626720630E-2
9.953649990E-1,-1.240056455E-1,-4.398229718E-2,2.382374369E-2
9.978655380E-1,-1.288925707E-1,-4.031710699E-2,2.076941915E-2
9.994095760E-1,-1.417207420E-1,-3.298672289E-2,1.710422710E-2
1.002045153E0,-1.502728462E-1,-2.565634064E-2,1.221730467E-2
1.003555653E0,-1.533271819E-1,-2.015855350E-2,1.038470957E-2
1.006288516E0,-1.624901593E-1,-1.466076635E-2,7.330383174E-3
1.007602076E0,-1.716531366E-1,-1.160643995E-2,1.221730490E-3
1.010128384E0,-1.771509200E-1,-1.099557430E-2,3.054326167E-3
1.011657115E0,-1.869247705E-1,-9.773843922E-3,-6.108652451E-4
1.014255768E0,-1.954768747E-1,-8.552113548E-3,-4.276056774E-3
1.015920576E0,-1.985312104E-1,-7.941247895E-3,-3.665191587E-3
1.018291615E0,-2.058615834E-1,-1.160643995E-2,-6.108652335E-3
1.019938422E0,-2.101376504E-1,-1.160643995E-2,-7.941247895E-3
1.022471691E0,-2.131919712E-1,-1.343903504E-2,-9.773843922E-3
1.023966961E0,-2.180788964E-1,-1.771509275E-2,-6.108652335E-3
1.026775286E0,-2.162462920E-1,-2.260201424E-2,-1.099557430E-2
1.028030268E0,-2.150245607E-1,-2.993239649E-2,-1.160643995E-2
1.030889209E0,-2.174680233E-1,-3.237585723E-2,-8.552113548E-3
1.032158653E0,-2.138028294E-1,-3.726277873E-2,-1.466076635E-2
1.034991709E0,-2.089159191E-1,-4.276056588E-2,-1.404990070E-2
1.036289807E0,-2.083050460E-1,-4.520402849E-2,-1.282817032E-2
1.039094593E0,-2.046398520E-1,-5.009094998E-2,-1.771509275E-2
1.040326422E0,-2.034181207E-1,-5.497787148E-2,-1.649336144E-2
1.043196516E0,-2.009746730E-1,-5.619960278E-2,-1.710422710E-2
1.044399191E0,-1.979203373E-1,-5.986479297E-2,-2.015855350E-2
1.047338132E0,-1.930334121E-1,-5.986479297E-2,-2.138028294E-2
1.048614999E0,-1.869247705E-1,-5.925392732E-2,-2.504547499E-2
1.051426939E0,-1.869247705E-1,-5.742133409E-2,-2.565634064E-2
1.052661191E0,-1.869247705E-1,-5.742133409E-2,-2.504547499E-2
1.055530247E0,-1.863138974E-1,-5.253441259E-2,-2.871066704E-2
1.056827884E0,-1.844813079E-1,-5.131268129E-2,-3.115412779E-2
1.059633362E0,-1.850921661E-1,-4.581489414E-2,-2.932153270E-2
1.060845384E0,-1.857030392E-1,-4.153883830E-2,-2.748893574E-2
1.063736055E0,-1.850921661E-1,-3.787364438E-2,-2.748893574E-2
1.064966845E0,-1.838704348E-1,-3.115412779E-2,-2.993239649E-2
1.067854824E0,-1.795943826E-1,-2.443460934E-2,-3.420845419E-2
1.069090153E0,-1.832595766E-1,-2.138028294E-2,-3.115412779E-2
1.071895307E0,-1.777617931E-1,-1.343903504E-2,-3.359758854E-2
1.073175768E0,-1.747074574E-1,-9.773843922E-3,-3.481931984E-2
1.075677922E0,-1.740965992E-1,-4.886921961E-3,-3.604105115E-2
1.077396345E0,-1.716531366E-1,-2.443460980E-3,-3.420845419E-2
1.079864807E0,-1.704314053E-1,3.054326167E-3,-3.420845419E-2
1.081427115E0,-1.673770845E-1,1.221730467E-2,-3.604105115E-2
1.084118653E0,-1.673770845E-1,1.160643995E-2,-3.359758854E-2
1.086118922E0,-1.606575549E-1,1.710422710E-2,-2.993239649E-2
1.088419285E0,-1.618792862E-1,2.015855350E-2,-2.565634064E-2
1.089652961E0,-1.569923609E-1,2.199114859E-2,-2.504547499E-2
1.092237999E0,-1.521054506E-1,2.443460934E-2,-1.893682219E-2
1.093753576E0,-1.466076523E-1,2.565634064E-2,-1.893682219E-2
1.096385499E0,-1.459967941E-1,2.809980139E-2,-1.771509275E-2
1.097995268E0,-1.392772794E-1,2.993239649E-2,-1.160643995E-2
1.100402922E0,-1.319468915E-1,3.237585723E-2,-1.404990070E-2
1.101938307E0,-1.282816976E-1,2.993239649E-2,-9.162978269E-3
1.104443345E0,-1.240056455E-1,3.054326214E-2,-5.497787148E-3
1.106066999E0,-1.197295859E-1,2.993239649E-2,-3.665191587E-3
1.108904401E0,-1.123992056E-1,2.748893574E-2,6.108652451E-4
1.110172191E0,-1.087340117E-1,2.748893574E-2,2.443460980E-3
1.113019593E0,-1.038470939E-1,2.443460934E-2,6.108652451E-4
1.114259076E0,-9.896016866E-2,2.321287990E-2,3.665191587E-3
1.117122901E0,-9.468411654E-2,2.443460934E-2,6.719517522E-3
1.118468114E0,-9.162978828E-2,2.260201424E-2,3.665191587E-3
1.121225439E0,-8.429940045E-2,2.260201424E-2,1.099557430E-2
1.122484961E0,-8.185594529E-2,2.015855350E-2,9.162978269E-3
1.125327708E0,-7.880161703E-2,2.076941915E-2,1.160643995E-2
1.127026845E0,-7.513642311E-2,2.199114859E-2,1.466076635E-2
1.129468439E0,-6.963863969E-2,1.954768784E-2,1.527163107E-2
1.130910038E0,-6.963863969E-2,1.832595654E-2,1.404990070E-2
1.133555477E0,-6.719517708E-2,1.588249579E-2,1.588249579E-2
1.134822999E0,-6.291911751E-2,1.404990070E-2,1.588249579E-2
1.137656170E0,-6.475171447E-2,1.466076635E-2,1.160643995E-2
1.139153076E0,-6.169738993E-2,9.162978269E-3,1.343903504E-2
1.141757977E0,-5.864306539E-2,1.038470957E-2,1.160643995E-2
1.142990845E0,-5.986479297E-2,7.330383174E-3,1.099557430E-2
1.145858824E0,-5.742133409E-2,4.276056774E-3,1.466076635E-2
1.147117768E0,-5.558873713E-2,3.665191587E-3,9.162978269E-3
1.149960247E0,-5.314527452E-2,6.108652451E-4,9.162978269E-3
1.151328268E0,-5.436700583E-2,-6.108652451E-4,1.221730467E-2
1.154074593E0,-4.948008433E-2,-2.443460980E-3,8.552113548E-3
1.155383538E0,-4.764748737E-2,-2.443460980E-3,6.719517522E-3
1.157909845E0,-4.459316283E-2,-7.330383174E-3,6.108652335E-3
1.159550038E0,-4.276056588E-2,-8.552113548E-3,6.108652451E-4
1.162045961E0,-4.520402849E-2,-1.343903504E-2,-6.108652451E-4
1.163559422E0,-4.337143153E-2,-1.404990070E-2,-6.108652451E-4
1.166107499E0,-4.092797264E-2,-1.588249579E-2,-5.497787148E-3
1.167763076E0,-3.970624134E-2,-1.710422710E-2,-1.160643995E-2
1.170524708E0,-3.909537569E-2,-1.832595654E-2,-9.773843922E-3
1.171823153E0,-3.909537569E-2,-1.710422710E-2,-1.221730467E-2
1.174453422E0,-4.031710699E-2,-1.710422710E-2,-1.404990070E-2
1.176015614E0,-3.848451003E-2,-1.404990070E-2,-1.466076635E-2
1.178491038E0,-3.970624134E-2,-1.527163107E-2,-1.221730467E-2
1.180083614E0,-3.909537569E-2,-1.282817032E-2,-1.710422710E-2
1.182808439E0,-3.970624134E-2,-1.160643995E-2,-1.404990070E-2
1.184162499E0,-3.848451003E-2,-6.719517522E-3,-1.343903504E-2
1.186820768E0,-3.909537569E-2,-3.054326167E-3,-1.282817032E-2
1.188252691E0,-3.848451003E-2,1.832595794E-3,-7.941247895E-3
1.191038323E0,-4.153883830E-2,4.276056774E-3,-5.497787148E-3
1.192283461E0,-3.970624134E-2,9.162978269E-3,-7.941247895E-3
1.195153016E0,-4.092797264E-2,1.282817032E-2,0.000000000E0
1.196556422E0,-3.848451003E-2,1.710422710E-2,0.000000000E0
1.199255708E0,-3.848451003E-2,2.321287990E-2,6.108652451E-4
1.200601230E0,-4.153883830E-2,2.932153270E-2,5.497787148E-3
1.203358785E0,-4.153883830E-2,3.237585723E-2,6.719517522E-3
1.204800768E0,-4.214970022E-2,3.787364438E-2,7.330383174E-3
1.207461093E0,-4.398229718E-2,4.398229718E-2,1.466076635E-2
1.208798845E0,-4.092797264E-2,4.825835302E-2,1.038470957E-2
1.211601362E0,-4.214970022E-2,5.436700583E-2,1.221730467E-2
1.213049576E0,-4.153883830E-2,5.742133409E-2,1.771509275E-2
1.215688477E0,-4.398229718E-2,6.230825558E-2,1.832595654E-2
1.217077730E0,-4.276056588E-2,6.230825558E-2,1.771509275E-2
1.219791362E0,-4.214970022E-2,6.658431143E-2,2.260201424E-2
1.221127191E0,-4.276056588E-2,6.780604273E-2,2.076941915E-2
1.223893131E0,-4.031710699E-2,6.597344577E-2,1.954768784E-2
1.225138999E0,-4.153883830E-2,6.658431143E-2,2.443460934E-2
1.227995016E0,-4.092797264E-2,6.902777404E-2,1.954768784E-2
1.229282691E0,-4.092797264E-2,6.658431143E-2,1.771509275E-2
1.232097015E0,-3.970624134E-2,6.475171447E-2,2.382374369E-2
1.233455384E0,-3.970624134E-2,6.536258012E-2,1.710422710E-2
1.236210477E0,-3.787364438E-2,6.352998316E-2,2.138028294E-2
1.237530461E0,-3.970624134E-2,6.352998316E-2,2.504547499E-2
1.240083345E0,-3.787364438E-2,6.352998316E-2,1.649336144E-2
1.241796807E0,-3.787364438E-2,6.291911751E-2,1.954768784E-2
1.244413439E0,-3.543018550E-2,5.925392732E-2,2.321287990E-2
1.246100345E0,-3.787364438E-2,5.925392732E-2,1.649336144E-2
1.248363384E0,-3.420845419E-2,5.864306539E-2,1.771509275E-2
1.249815461E0,-3.604105115E-2,5.742133409E-2,1.954768784E-2
1.252657631E0,-3.237585723E-2,5.681046844E-2,1.832595654E-2
1.254247807E0,-3.176499158E-2,5.681046844E-2,1.710422710E-2
1.256732862E0,-3.115412779E-2,5.558873713E-2,1.832595654E-2
1.258018576E0,-2.809980139E-2,5.619960278E-2,1.527163107E-2
1.260624076E0,-2.871066704E-2,5.497787148E-2,1.649336144E-2
1.262217307E0,-2.687807009E-2,5.619960278E-2,1.771509275E-2
1.264727730E0,-2.748893574E-2,5.497787148E-2,1.649336144E-2
1.266310768E0,-2.687807009E-2,5.436700583E-2,1.649336144E-2
1.268866768E0,-2.321287990E-2,5.681046844E-2,1.649336144E-2
1.270346730E0,-2.199114859E-2,5.803219974E-2,1.221730467E-2
1.273142323E0,-2.382374369E-2,5.864306539E-2,1.588249579E-2
1.274480730E0,-2.076941915E-2,6.047565863E-2,1.466076635E-2
1.277256323E0,-2.260201424E-2,6.047565863E-2,1.221730467E-2
1.278561037E0,-1.771509275E-2,5.986479297E-2,1.527163107E-2
1.281358746E0,-1.832595654E-2,6.108652428E-2,1.771509275E-2
1.282763076E0,-1.588249579E-2,6.475171447E-2,1.466076635E-2
1.285460477E0,-1.343903504E-2,6.536258012E-2,1.832595654E-2
1.287090807E0,-1.099557430E-2,6.597344577E-2,1.649336144E-2
1.289561361E0,-1.099557430E-2,6.414084882E-2,1.832595654E-2
1.290816037E0,-5.497787148E-3,6.658431143E-2,1.832595654E-2
1.293701477E0,-3.054326167E-3,6.414084882E-2,2.015855350E-2
1.295256114E0,-1.221730490E-3,6.169738993E-2,1.527163107E-2
1.297789746E0,6.108652451E-4,6.291911751E-2,2.138028294E-2
1.299108268E0,3.054326167E-3,6.230825558E-2,1.649336144E-2
1.301891246E0,6.719517522E-3,6.047565863E-2,1.954768784E-2
1.303322653E0,8.552113548E-3,5.986479297E-2,1.954768784E-2
1.305993708E0,9.773843922E-3,5.803219974E-2,2.076941915E-2
1.307594999E0,1.404990070E-2,5.803219974E-2,1.893682219E-2
1.310096131E0,1.466076635E-2,5.558873713E-2,2.076941915E-2
1.311336114E0,1.649336144E-2,5.681046844E-2,1.832595654E-2
1.314197669E0,2.443460934E-2,5.742133409E-2,1.893682219E-2
1.315594960E0,2.687807009E-2,5.619960278E-2,2.199114859E-2
1.318286345E0,3.176499158E-2,5.986479297E-2,1.893682219E-2
1.319586268E0,3.543018550E-2,5.986479297E-2,2.138028294E-2
1.322133999E0,3.970624134E-2,6.047565863E-2,2.199114859E-2
1.323786960E0,4.214970022E-2,5.925392732E-2,2.382374369E-2
1.326398499E0,4.520402849E-2,6.291911751E-2,2.321287990E-2
1.327801460E0,5.070181563E-2,6.108652428E-2,2.871066704E-2
1.330457460E0,5.253441259E-2,6.475171447E-2,2.932153270E-2
1.332070076E0,5.742133409E-2,6.352998316E-2,3.115412779E-2
1.334759938E0,6.108652428E-2,6.414084882E-2,3.176499158E-2
1.336095537E0,6.169738993E-2,6.475171447E-2,3.481931984E-2
1.338699037E0,6.291911751E-2,6.597344577E-2,3.481931984E-2
1.340189191E0,6.841690838E-2,6.597344577E-2,3.909537569E-2
1.342939823E0,6.963863969E-2,6.475171447E-2,4.031710699E-2
1.344362422E0,7.513642311E-2,6.658431143E-2,4.459316283E-2
1.346844691E0,7.635815442E-2,6.597344577E-2,4.459316283E-2
1.348317768E0,8.002334833E-2,6.352998316E-2,4.398229718E-2
1.350835268E0,7.941248268E-2,6.475171447E-2,5.131268129E-2
1.352507230E0,8.185594529E-2,6.414084882E-2,5.070181563E-2
1.355246861E0,8.124507964E-2,6.475171447E-2,5.314527452E-2
1.356549691E0,8.307767659E-2,6.597344577E-2,5.375614017E-2
1.359361438E0,8.613199741E-2,6.352998316E-2,5.558873713E-2
1.360622807E0,8.979719132E-2,6.536258012E-2,5.253441259E-2
1.363464861E0,8.857546002E-2,6.291911751E-2,5.436700583E-2
1.364962191E0,8.735372871E-2,6.475171447E-2,5.436700583E-2
1.367566977E0,8.552113175E-2,6.719517708E-2,5.253441259E-2
1.369041999E0,8.674286306E-2,6.780604273E-2,5.436700583E-2
1.371669284E0,8.552113175E-2,7.086037099E-2,5.253441259E-2
1.372968037E0,8.368854225E-2,7.330382615E-2,5.070181563E-2
1.375809400E0,8.368854225E-2,7.757988572E-2,5.192354694E-2
1.377462537E0,8.491026610E-2,7.880161703E-2,5.009094998E-2
1.379896438E0,8.124507964E-2,8.246681094E-2,5.009094998E-2
1.381308614E0,8.002334833E-2,8.613199741E-2,4.948008433E-2
1.383998746E0,8.002334833E-2,8.796459436E-2,4.825835302E-2
1.385356999E0,7.757988572E-2,9.651670605E-2,4.703662544E-2
1.388100669E0,7.574728876E-2,1.032362282E-1,4.398229718E-2
1.389381922E0,7.696902007E-2,1.056796908E-1,4.337143153E-2
1.392202361E0,7.391469181E-2,1.123992056E-1,4.031710699E-2
1.393520153E0,7.024950534E-2,1.178969890E-1,4.092797264E-2
1.396304784E0,6.719517708E-2,1.215621829E-1,4.092797264E-2
1.397911730E0,6.780604273E-2,1.270599663E-1,3.970624134E-2
1.400416345E0,6.414084882E-2,1.343903542E-1,3.665191308E-2
1.401828999E0,5.986479297E-2,1.380555481E-1,3.481931984E-2
1.404303307E0,5.803219974E-2,1.435533315E-1,3.543018550E-2
1.405938268E0,5.619960278E-2,1.478293836E-1,3.420845419E-2
1.408446037E0,5.253441259E-2,1.508837193E-1,3.298672289E-2
1.410004037E0,5.192354694E-2,1.496619880E-1,3.481931984E-2
1.412578230E0,4.825835302E-2,1.563815027E-1,3.115412779E-2
1.414228191E0,4.459316283E-2,1.569923609E-1,3.237585723E-2
1.416869169E0,4.459316283E-2,1.569923609E-1,3.298672289E-2
1.418420807E0,4.092797264E-2,1.569923609E-1,3.176499158E-2
1.420944784E0,4.092797264E-2,1.557706445E-1,3.420845419E-2
1.422257691E0,3.787364438E-2,1.545489132E-1,3.604105115E-2
1.424972730E0,3.543018550E-2,1.514945775E-1,3.726277873E-2
1.426383730E0,3.543018550E-2,1.478293836E-1,3.848451003E-2
1.429149092E0,3.359758854E-2,1.423316002E-1,4.214970022E-2
1.430481807E0,3.115412779E-2,1.417207420E-1,4.337143153E-2
1.432955653E0,2.993239649E-2,1.362229437E-1,4.764748737E-2
1.434529114E0,3.237585723E-2,1.319468915E-1,4.948008433E-2
1.437379707E0,3.115412779E-2,1.282816976E-1,5.131268129E-2
1.438819691E0,2.932153270E-2,1.252273768E-1,5.619960278E-2
1.441496899E0,2.626720630E-2,1.221730486E-1,5.925392732E-2
1.442781922E0,2.809980139E-2,1.178969890E-1,6.108652428E-2
1.445599438E0,2.748893574E-2,1.154535338E-1,6.536258012E-2
1.447211191E0,2.504547499E-2,1.130100712E-1,7.024950534E-2
1.449702245E0,2.199114859E-2,1.117883399E-1,7.024950534E-2
1.451302499E0,2.138028294E-2,1.105666086E-1,7.696902007E-2
1.453805592E0,1.649336144E-2,1.062905490E-1,7.819075137E-2
1.455118576E0,1.649336144E-2,1.056796908E-1,8.185594529E-2
1.457947438E0,1.466076635E-2,1.050688252E-1,8.368854225E-2
1.459380960E0,1.099557430E-2,1.044579595E-1,8.613199741E-2
1.462036938E0,3.665191587E-3,1.038470939E-1,9.040805697E-2
1.463576422E0,2.443460980E-3,1.014036313E-1,9.224065393E-2
1.466139745E0,-4.276056774E-3,9.651670605E-2,9.407325089E-2
1.467491768E0,-8.552113548E-3,9.834930301E-2,9.468411654E-2
1.470242745E0,-1.343903504E-2,9.896016866E-2,9.712757170E-2
1.471511422E0,-2.076941915E-2,9.712757170E-2,9.590584040E-2
1.474346591E0,-2.809980139E-2,9.468411654E-2,9.834930301E-2
1.475964191E0,-3.176499158E-2,9.346238524E-2,1.001819000E-1
1.478464515E0,-4.276056588E-2,9.162978828E-2,1.007927656E-1
1.479713960E0,-5.192354694E-2,8.796459436E-2,1.032362282E-1
1.482525653E0,-6.047565863E-2,8.857546002E-2,1.044579595E-1
1.483896076E0,-6.536258012E-2,8.552113175E-2,1.044579595E-1
1.486405960E0,-7.696902007E-2,8.307767659E-2,1.056796908E-1
1.488080037E0,-8.368854225E-2,8.307767659E-2,1.056796908E-1
1.490508307E0,-9.224065393E-2,8.124507964E-2,1.062905490E-1
1.492006114E0,-9.896016866E-2,8.185594529E-2,1.087340117E-1
1.494499230E0,-1.087340117E-1,8.491026610E-2,1.050688252E-1
1.496102614E0,-1.148426682E-1,8.246681094E-2,1.062905490E-1
1.499027822E0,-1.233947799E-1,8.491026610E-2,1.062905490E-1
1.500192614E0,-1.319468915E-1,8.613199741E-2,1.032362282E-1
1.502770460E0,-1.386664063E-1,8.613199741E-2,1.032362282E-1
1.504322460E0,-1.459967941E-1,8.735372871E-2,1.044579595E-1
1.506925922E0,-1.508837193E-1,9.285151958E-2,1.001819000E-1
1.508489230E0,-1.618792862E-1,9.590584040E-2,1.001819000E-1
1.511013730E0,-1.643227488E-1,9.590584040E-2,1.007927656E-1
1.512534422E0,-1.722639948E-1,9.773843735E-2,9.590584040E-2
1.515046422E0,-1.765400618E-1,1.001819000E-1,9.651670605E-2
1.516634768E0,-1.838704348E-1,1.026253626E-1,9.590584040E-2
1.519518476E0,-1.863138974E-1,1.069014147E-1,9.529497474E-2
1.520800999E0,-1.936442852E-1,1.093448773E-1,9.346238524E-2
1.523633207E0,-1.960877478E-1,1.117883399E-1,9.468411654E-2
1.524867614E0,-2.021963894E-1,1.148426682E-1,9.529497474E-2
1.527736514E0,-2.040289938E-1,1.197295859E-1,9.407325089E-2
1.529618576E0,-2.095267773E-1,1.233947799E-1,9.651670605E-2
1.531839207E0,-2.107485086E-1,1.258382350E-1,9.162978828E-2
1.533114537E0,-2.144137025E-1,1.264491081E-1,9.651670605E-2
1.535942784E0,-2.162462920E-1,1.307251602E-1,9.712757170E-2
1.537479268E0,-2.162462920E-1,1.319468915E-1,9.162978828E-2
1.540084053E0,-2.174680233E-1,1.331686229E-1,9.285151958E-2
1.541480114E0,-2.162462920E-1,1.331686229E-1,9.468411654E-2
1.544173091E0,-2.156354338E-1,1.343903542E-1,9.529497474E-2
1.545447268E0,-2.125810981E-1,1.307251602E-1,9.101892263E-2
1.548276207E0,-2.113593817E-1,1.288925707E-1,9.101892263E-2
1.549636691E0,-2.076941878E-1,1.282816976E-1,8.796459436E-2
1.552379591E0,-2.070833147E-1,1.233947799E-1,9.162978828E-2
1.553721191E0,-2.021963894E-1,1.185078546E-1,9.040805697E-2
1.556482322E0,-2.003637999E-1,1.160643995E-1,8.735372871E-2
1.557846268E0,-1.942551434E-1,1.093448773E-1,8.674286306E-2
1.560583591E0,-1.887573600E-1,1.026253626E-1,8.368854225E-2
1.561950499E0,-1.838704348E-1,9.407325089E-2,7.880161703E-2
1.564698553E0,-1.808161139E-1,8.918632567E-2,8.002334833E-2
1.566060653E0,-1.734857261E-1,8.124507964E-2,7.574728876E-2
1.568736037E0,-1.685988009E-1,7.330382615E-2,7.574728876E-2
1.570435037E0,-1.655444801E-1,6.719517708E-2,7.452555746E-2
1.572797960E0,-1.600466967E-1,5.742133409E-2,6.780604273E-2
1.574289730E0,-1.508837193E-1,4.825835302E-2,6.719517708E-2
1.576928691E0,-1.490511149E-1,4.398229718E-2,6.658431143E-2
1.578309730E0,-1.398881376E-1,3.604105115E-2,6.108652428E-2
1.581146322E0,-1.337794960E-1,2.626720630E-2,5.864306539E-2
1.582339691E0,-1.295034289E-1,2.504547499E-2,5.558873713E-2
1.584961114E0,-1.215621829E-1,1.588249579E-2,5.253441259E-2
1.586462537E0,-1.130100712E-1,7.330383174E-3,5.192354694E-2
1.589104191E0,-1.069014147E-1,1.221730490E-3,4.764748737E-2
1.590863999E0,-1.014036313E-1,0.000000000E0,4.398229718E-2
1.593232614E0,-9.834930301E-2,-6.719517522E-3,4.459316283E-2
1.594934499E0,-8.857546002E-2,-9.773843922E-3,3.970624134E-2
1.597219845E0,-8.491026610E-2,-1.038470957E-2,3.909537569E-2
1.598903460E0,-7.635815442E-2,-1.649336144E-2,3.237585723E-2
1.601631745E0,-7.513642311E-2,-2.076941915E-2,3.115412779E-2
1.602872383E0,-7.024950534E-2,-2.076941915E-2,2.871066704E-2
1.605746668E0,-6.414084882E-2,-2.260201424E-2,2.321287990E-2
1.606969883E0,-6.414084882E-2,-2.504547499E-2,2.138028294E-2
1.609848629E0,-5.925392732E-2,-2.321287990E-2,1.954768784E-2
1.611232345E0,-5.375614017E-2,-2.321287990E-2,1.710422710E-2
1.613951206E0,-5.375614017E-2,-2.321287990E-2,1.893682219E-2
1.615413230E0,-4.825835302E-2,-2.076941915E-2,1.343903504E-2
1.618054014E0,-4.825835302E-2,-2.199114859E-2,1.343903504E-2
1.619454845E0,-4.459316283E-2,-2.076941915E-2,1.466076635E-2
1.622195283E0,-4.642575979E-2,-1.649336144E-2,1.343903504E-2
1.623464845E0,-4.398229718E-2,-1.649336144E-2,1.160643995E-2
1.626285052E0,-4.153883830E-2,-1.221730467E-2,1.404990070E-2
1.627537230E0,-4.214970022E-2,-1.221730467E-2,1.221730467E-2
1.630386399E0,-4.276056588E-2,-1.466076635E-2,1.221730467E-2
1.631858729E0,-3.909537569E-2,-1.282817032E-2,1.221730467E-2
1.634488206E0,-4.031710699E-2,-1.221730467E-2,9.773843922E-3
1.636210883E0,-4.031710699E-2,-1.221730467E-2,1.099557430E-2
1.638590052E0,-3.970624134E-2,-1.038470957E-2,7.941247895E-3
1.639964922E0,-4.214970022E-2,-1.160643995E-2,1.404990070E-2
1.642692514E0,-4.398229718E-2,-1.343903504E-2,1.099557430E-2
1.643983576E0,-4.398229718E-2,-1.404990070E-2,8.552113548E-3
1.646807283E0,-4.398229718E-2,-1.588249579E-2,9.162978269E-3
1.648102383E0,-4.642575979E-2,-1.649336144E-2,8.552113548E-3
1.650721422E0,-5.009094998E-2,-1.832595654E-2,9.162978269E-3
1.652575768E0,-5.253441259E-2,-2.260201424E-2,9.773843922E-3
1.655011706E0,-5.314527452E-2,-2.626720630E-2,7.330383174E-3
1.656388268E0,-5.436700583E-2,-2.687807009E-2,7.941247895E-3
1.658789499E0,-5.681046844E-2,-3.298672289E-2,6.719517522E-3
1.660480037E0,-6.047565863E-2,-3.909537569E-2,7.941247895E-3
1.663255745E0,-6.230825558E-2,-3.848451003E-2,9.162978269E-3
1.664543960E0,-6.291911751E-2,-4.337143153E-2,7.330383174E-3
1.667092037E0,-6.414084882E-2,-4.825835302E-2,6.719517522E-3
1.668619729E0,-6.658431143E-2,-5.314527452E-2,7.330383174E-3
1.671291422E0,-6.780604273E-2,-5.436700583E-2,5.497787148E-3
1.672849345E0,-6.902777404E-2,-5.986479297E-2,8.552113548E-3
1.675536129E0,-6.902777404E-2,-6.169738993E-2,7.941247895E-3
1.676902576E0,-7.269296050E-2,-6.352998316E-2,7.941247895E-3
1.679330076E0,-7.330382615E-2,-6.414084882E-2,5.497787148E-3
1.680944729E0,-7.574728876E-2,-6.475171447E-2,6.719517522E-3
1.683764860E0,-7.391469181E-2,-6.536258012E-2,5.497787148E-3
1.685217306E0,-7.330382615E-2,-6.597344577E-2,6.108652335E-3
1.687880975E0,-7.574728876E-2,-6.658431143E-2,7.941247895E-3
1.689169729E0,-7.330382615E-2,-6.475171447E-2,6.719517522E-3
1.691983360E0,-7.513642311E-2,-6.291911751E-2,4.276056774E-3
1.693835691E0,-7.574728876E-2,-6.230825558E-2,4.886921961E-3
1.696085744E0,-7.635815442E-2,-6.047565863E-2,4.886921961E-3
1.697611191E0,-7.513642311E-2,-6.047565863E-2,6.108652335E-3
1.700187783E0,-7.574728876E-2,-5.742133409E-2,4.276056774E-3
1.701708537E0,-7.452555746E-2,-5.558873713E-2,1.221730490E-3
1.704328514E0,-7.208210230E-2,-5.436700583E-2,1.832595794E-3
1.705880806E0,-7.452555746E-2,-5.009094998E-2,6.108652451E-4
1.708416668E0,-7.330382615E-2,-4.642575979E-2,-1.832595794E-3
1.709884306E0,-7.513642311E-2,-4.520402849E-2,6.108652451E-4
1.712519398E0,-7.208210230E-2,-4.092797264E-2,-3.054326167E-3
1.714254383E0,-7.208210230E-2,-3.970624134E-2,-3.054326167E-3
1.716621706E0,-7.269296050E-2,-3.359758854E-2,-4.886921961E-3
1.718015191E0,-7.147123665E-2,-3.298672289E-2,-4.886921961E-3
1.720726321E0,-7.147123665E-2,-2.809980139E-2,-3.665191587E-3
1.722026883E0,-7.086037099E-2,-2.809980139E-2,-4.276056774E-3
1.724829629E0,-7.086037099E-2,-2.565634064E-2,-7.330383174E-3
1.726134729E0,-7.024950534E-2,-2.382374369E-2,-3.665191587E-3
1.728944591E0,-6.719517708E-2,-2.321287990E-2,-6.108652335E-3
1.730437576E0,-7.208210230E-2,-2.076941915E-2,-4.276056774E-3
1.732770076E0,-6.902777404E-2,-2.138028294E-2,-4.886921961E-3
1.734447537E0,-6.841690838E-2,-1.771509275E-2,-6.719517522E-3
1.736997999E0,-6.780604273E-2,-1.710422710E-2,-1.038470957E-2
1.738940922E0,-6.658431143E-2,-1.649336144E-2,-6.719517522E-3
1.740953960E0,-6.597344577E-2,-1.527163107E-2,-1.038470957E-2
1.742815499E0,-6.841690838E-2,-1.527163107E-2,-1.038470957E-2
1.745393398E0,-6.475171447E-2,-1.588249579E-2,-1.160643995E-2
1.746874652E0,-6.475171447E-2,-1.282817032E-2,-1.221730467E-2
1.749449768E0,-6.841690838E-2,-1.404990070E-2,-1.221730467E-2
1.750931922E0,-6.475171447E-2,-1.588249579E-2,-1.221730467E-2
1.753336652E0,-6.780604273E-2,-1.832595654E-2,-1.038470957E-2
1.754944306E0,-6.780604273E-2,-1.893682219E-2,-1.099557430E-2
1.757570999E0,-6.780604273E-2,-1.649336144E-2,-7.941247895E-3
1.759069229E0,-6.780604273E-2,-1.893682219E-2,-1.099557430E-2
1.761475768E0,-6.780604273E-2,-1.954768784E-2,-1.221730467E-2
1.763129460E0,-7.024950534E-2,-1.954768784E-2,-1.160643995E-2
1.765880667E0,-6.780604273E-2,-2.076941915E-2,-1.160643995E-2
1.767187729E0,-6.963863969E-2,-2.199114859E-2,-1.404990070E-2
1.769997206E0,-6.902777404E-2,-2.443460934E-2,-1.099557430E-2
1.771359883E0,-7.147123665E-2,-2.382374369E-2,-1.343903504E-2
1.774100744E0,-7.269296050E-2,-2.443460934E-2,-1.588249579E-2
1.775504999E0,-7.208210230E-2,-2.321287990E-2,-1.771509275E-2
1.778204360E0,-7.391469181E-2,-2.565634064E-2,-1.710422710E-2
1.780239552E0,-7.941248268E-2,-2.443460934E-2,-1.404990070E-2
1.782308167E0,-7.880161703E-2,-2.565634064E-2,-1.588249579E-2
1.783637268E0,-7.880161703E-2,-2.626720630E-2,-1.527163107E-2
1.786449706E0,-8.063421398E-2,-2.809980139E-2,-1.832595654E-2
1.787890576E0,-8.246681094E-2,-2.809980139E-2,-1.710422710E-2
1.790540283E0,-8.246681094E-2,-2.748893574E-2,-1.771509275E-2
1.791851460E0,-8.246681094E-2,-2.932153270E-2,-2.138028294E-2
1.794643667E0,-8.674286306E-2,-3.115412779E-2,-1.893682219E-2
1.796080460E0,-8.735372871E-2,-3.237585723E-2,-2.199114859E-2
1.798745859E0,-8.613199741E-2,-3.176499158E-2,-2.076941915E-2
1.800171268E0,-8.857546002E-2,-3.359758854E-2,-2.076941915E-2
1.802847513E0,-8.857546002E-2,-3.115412779E-2,-2.321287990E-2
1.804169114E0,-8.979719132E-2,-3.237585723E-2,-2.199114859E-2
1.806949859E0,-8.979719132E-2,-3.176499158E-2,-2.260201424E-2
1.808200460E0,-9.101892263E-2,-3.054326214E-2,-2.687807009E-2
1.811067244E0,-9.224065393E-2,-3.054326214E-2,-2.382374369E-2
1.812820729E0,-9.162978828E-2,-3.176499158E-2,-2.321287990E-2
1.815168898E0,-9.346238524E-2,-3.115412779E-2,-2.504547499E-2
1.816797845E0,-9.346238524E-2,-3.176499158E-2,-2.199114859E-2
1.819269768E0,-9.712757170E-2,-3.115412779E-2,-2.015855350E-2
1.820922191E0,-9.407325089E-2,-3.359758854E-2,-2.138028294E-2
1.823057268E0,-9.346238524E-2,-3.237585723E-2,-2.199114859E-2
1.824689845E0,-9.712757170E-2,-3.298672289E-2,-2.015855350E-2
1.827516013E0,-9.468411654E-2,-3.237585723E-2,-2.199114859E-2
1.828748345E0,-9.407325089E-2,-3.176499158E-2,-2.199114859E-2
1.831383922E0,-9.468411654E-2,-3.420845419E-2,-2.199114859E-2
1.832888537E0,-9.773843735E-2,-3.176499158E-2,-2.199114859E-2
1.835589499E0,-9.712757170E-2,-3.359758854E-2,-2.076941915E-2
1.837082999E0,-9.346238524E-2,-3.176499158E-2,-2.199114859E-2
1.839658614E0,-9.590584040E-2,-3.115412779E-2,-2.199114859E-2
1.841093845E0,-9.773843735E-2,-3.115412779E-2,-2.015855350E-2
1.843589806E0,-9.468411654E-2,-3.359758854E-2,-2.076941915E-2
1.845212575E0,-9.590584040E-2,-3.298672289E-2,-2.443460934E-2
1.848001898E0,-9.651670605E-2,-3.359758854E-2,-1.954768784E-2
1.849426729E0,-9.712757170E-2,-3.237585723E-2,-1.954768784E-2
1.852116052E0,-9.712757170E-2,-3.298672289E-2,-2.138028294E-2
1.853572960E0,-9.468411654E-2,-3.237585723E-2,-2.015855350E-2
1.856218052E0,-9.590584040E-2,-3.420845419E-2,-2.138028294E-2
1.857590191E0,-9.590584040E-2,-3.298672289E-2,-1.893682219E-2
1.860320628E0,-9.712757170E-2,-3.420845419E-2,-1.649336144E-2
1.861648075E0,-9.529497474E-2,-3.359758854E-2,-1.893682219E-2
1.864423667E0,-9.651670605E-2,-3.176499158E-2,-1.771509275E-2
1.865673845E0,-9.468411654E-2,-3.176499158E-2,-1.649336144E-2
1.868564628E0,-9.468411654E-2,-2.993239649E-2,-1.710422710E-2
1.869949460E0,-9.040805697E-2,-2.993239649E-2,-1.893682219E-2
1.872653744E0,-9.285151958E-2,-2.748893574E-2,-1.771509275E-2
1.873946114E0,-8.857546002E-2,-2.809980139E-2,-1.832595654E-2
1.876756667E0,-8.979719132E-2,-2.504547499E-2,-2.199114859E-2
1.878117460E0,-8.735372871E-2,-2.565634064E-2,-1.771509275E-2
1.880859898E0,-8.552113175E-2,-2.382374369E-2,-1.771509275E-2
1.882175922E0,-8.491026610E-2,-2.626720630E-2,-1.710422710E-2
1.884963051E0,-8.368854225E-2,-2.443460934E-2,-1.771509275E-2
1.886249499E0,-8.063421398E-2,-2.443460934E-2,-1.893682219E-2
1.889080551E0,-8.002334833E-2,-2.504547499E-2,-1.649336144E-2
1.890383306E0,-8.002334833E-2,-2.504547499E-2,-1.588249579E-2
1.893194782E0,-7.757988572E-2,-2.443460934E-2,-2.015855350E-2
1.894883229E0,-7.269296050E-2,-2.382374369E-2,-1.710422710E-2
1.897289806E0,-7.330382615E-2,-2.382374369E-2,-1.771509275E-2
1.898781614E0,-7.024950534E-2,-2.382374369E-2,-1.710422710E-2
1.901220999E0,-6.719517708E-2,-2.138028294E-2,-1.771509275E-2
1.902778422E0,-6.597344577E-2,-2.138028294E-2,-1.710422710E-2
1.905205922E0,-6.536258012E-2,-2.138028294E-2,-1.710422710E-2
1.906976537E0,-6.047565863E-2,-2.076941915E-2,-1.710422710E-2
1.909646321E0,-5.986479297E-2,-2.199114859E-2,-1.649336144E-2
1.910911614E0,-5.925392732E-2,-2.199114859E-2,-1.710422710E-2
1.913541883E0,-5.742133409E-2,-2.076941915E-2,-1.710422710E-2
1.914960229E0,-5.681046844E-2,-2.443460934E-2,-1.588249579E-2
1.917579806E0,-5.375614017E-2,-2.443460934E-2,-1.771509275E-2
1.919234768E0,-5.253441259E-2,-2.565634064E-2,-1.649336144E-2
1.921927821E0,-5.314527452E-2,-2.748893574E-2,-1.649336144E-2
1.923281268E0,-5.192354694E-2,-2.748893574E-2,-1.588249579E-2
1.925887268E0,-5.070181563E-2,-2.687807009E-2,-1.343903504E-2
1.927279806E0,-4.886921868E-2,-2.687807009E-2,-1.527163107E-2
1.930157090E0,-4.703662544E-2,-2.748893574E-2,-1.588249579E-2
1.931460345E0,-4.764748737E-2,-2.565634064E-2,-1.343903504E-2
1.934274705E0,-4.642575979E-2,-2.504547499E-2,-1.404990070E-2
1.935624845E0,-4.703662544E-2,-2.504547499E-2,-1.466076635E-2
1.938376744E0,-4.581489414E-2,-2.626720630E-2,-1.466076635E-2
1.939793845E0,-4.520402849E-2,-2.382374369E-2,-1.893682219E-2
1.942479090E0,-4.398229718E-2,-2.382374369E-2,-1.282817032E-2
1.943770037E0,-4.337143153E-2,-2.199114859E-2,-1.404990070E-2
1.946581359E0,-4.092797264E-2,-2.199114859E-2,-1.710422710E-2
1.947865999E0,-4.031710699E-2,-1.954768784E-2,-1.588249579E-2
1.950721859E0,-4.153883830E-2,-1.954768784E-2,-1.466076635E-2
1.952089691E0,-4.031710699E-2,-1.771509275E-2,-1.466076635E-2
1.954810590E0,-3.726277873E-2,-1.588249579E-2,-1.649336144E-2
1.956098268E0,-3.726277873E-2,-1.771509275E-2,-1.404990070E-2
1.958912090E0,-3.481931984E-2,-1.588249579E-2,-1.527163107E-2
1.960323998E0,-3.176499158E-2,-1.404990070E-2,-1.466076635E-2
1.963014628E0,-2.932153270E-2,-1.221730467E-2,-1.710422710E-2
1.964311037E0,-2.809980139E-2,-1.282817032E-2,-1.893682219E-2
1.967116513E0,-2.504547499E-2,-1.160643995E-2,-1.954768784E-2
1.968415191E0,-2.321287990E-2,-1.099557430E-2,-1.649336144E-2
1.971219013E0,-2.076941915E-2,-1.099557430E-2,-1.771509275E-2
1.972528422E0,-1.893682219E-2,-1.099557430E-2,-1.771509275E-2
1.975334974E0,-1.466076635E-2,-9.773843922E-3,-1.649336144E-2
1.976700806E0,-1.466076635E-2,-9.162978269E-3,-1.588249579E-2
1.979184268E0,-1.160643995E-2,-6.719517522E-3,-1.771509275E-2
1.981033691E0,-7.941247895E-3,-8.552113548E-3,-1.649336144E-2
1.983333460E0,-8.552113548E-3,-8.552113548E-3,-1.588249579E-2
1.984820922E0,-4.886921961E-3,-7.330383174E-3,-1.527163107E-2
1.987643859E0,-2.443460980E-3,-7.941247895E-3,-1.649336144E-2
1.989072806E0,-6.108652451E-4,-6.719517522E-3,-1.649336144E-2
1.991784859E0,-1.832595794E-3,-9.773843922E-3,-1.588249579E-2
1.993432229E0,0.000000000E0,-7.941247895E-3,-1.588249579E-2
1.995860628E0,4.276056774E-3,-9.773843922E-3,-1.954768784E-2
1.997124152E0,2.443460980E-3,-1.038470957E-2,-1.588249579E-2
1.999749498E0,6.719517522E-3,-1.160643995E-2,-1.893682219E-2
2.001412152E0,6.719517522E-3,-1.343903504E-2,-1.832595654E-2
2.003852075E0,7.330383174E-3,-1.527163107E-2,-1.710422710E-2
2.005543498E0,7.330383174E-3,-1.588249579E-2,-1.527163107E-2
2.007915768E0,9.162978269E-3,-1.771509275E-2,-1.893682219E-2
2.009441537E0,6.108652335E-3,-1.832595654E-2,-1.649336144E-2
2.012268166E0,8.552113548E-3,-2.138028294E-2,-2.138028294E-2
2.013555229E0,8.552113548E-3,-2.138028294E-2,-1.954768784E-2
2.016382589E0,9.162978269E-3,-2.199114859E-2,-1.893682219E-2
2.017985806E0,8.552113548E-3,-2.199114859E-2,-1.771509275E-2
2.020486666E0,1.038470957E-2,-2.199114859E-2,-1.832595654E-2
2.022061729E0,1.099557430E-2,-2.321287990E-2,-1.710422710E-2
2.024589936E0,9.773843922E-3,-2.199114859E-2,-1.893682219E-2
2.025950537E0,1.038470957E-2,-2.199114859E-2,-1.832595654E-2
2.028693512E0,1.282817032E-2,-2.199114859E-2,-1.710422710E-2
2.030192960E0,1.099557430E-2,-2.321287990E-2,-1.588249579E-2
2.032834012E0,1.160643995E-2,-2.443460934E-2,-1.649336144E-2
2.034131537E0,1.466076635E-2,-2.443460934E-2,-1.527163107E-2
2.036921705E0,1.038470957E-2,-2.382374369E-2,-1.343903504E-2
2.038202460E0,1.343903504E-2,-2.504547499E-2,-1.343903504E-2
2.041024359E0,1.221730467E-2,-2.504547499E-2,-9.773843922E-3
2.042411768E0,1.343903504E-2,-2.382374369E-2,-1.466076635E-2
2.045127666E0,1.404990070E-2,-2.382374369E-2,-1.282817032E-2
2.046503229E0,1.160643995E-2,-2.443460934E-2,-7.941247895E-3
2.049231166E0,1.282817032E-2,-2.321287990E-2,-1.282817032E-2
2.050548922E0,1.282817032E-2,-2.382374369E-2,-1.038470957E-2
2.053334820E0,1.343903504E-2,-2.626720630E-2,-9.773843922E-3
2.054766575E0,1.221730467E-2,-2.687807009E-2,-1.160643995E-2
2.057450435E0,1.282817032E-2,-2.565634064E-2,-9.162978269E-3
2.058784306E0,1.282817032E-2,-2.199114859E-2,-8.552113548E-3
2.061388998E0,1.221730467E-2,-2.260201424E-2,-8.552113548E-3
2.062953306E0,1.282817032E-2,-2.199114859E-2,-9.773843922E-3
2.065521383E0,1.343903504E-2,-1.893682219E-2,-9.162978269E-3
2.067038345E0,1.221730467E-2,-1.710422710E-2,-7.330383174E-3
2.069488575E0,1.221730467E-2,-1.588249579E-2,-6.108652335E-3
2.071051191E0,1.221730467E-2,-1.404990070E-2,-6.719517522E-3
2.073900897E0,9.773843922E-3,-1.404990070E-2,-4.276056774E-3
2.075369421E0,1.160643995E-2,-1.099557430E-2,-6.108652335E-3
2.077701268E0,1.160643995E-2,-9.773843922E-3,-1.221730490E-3
2.079277960E0,1.160643995E-2,-6.108652335E-3,-3.054326167E-3
2.081846421E0,1.221730467E-2,-3.665191587E-3,-3.054326167E-3
2.083481883E0,1.221730467E-2,-1.832595794E-3,-1.832595794E-3
2.085932614E0,1.527163107E-2,-1.832595794E-3,1.221730490E-3
2.087556268E0,1.466076635E-2,1.221730490E-3,0.000000000E0
2.090045614E0,1.466076635E-2,1.832595794E-3,-1.221730490E-3
2.091663345E0,1.343903504E-2,3.054326167E-3,0.000000000E0
2.094388281E0,1.343903504E-2,6.719517522E-3,1.221730490E-3
2.096156037E0,1.221730467E-2,7.330383174E-3,7.330383174E-3
2.098504820E0,1.343903504E-2,9.773843922E-3,4.276056774E-3
2.099787037E0,1.404990070E-2,1.038470957E-2,3.665191587E-3
2.102608820E0,1.038470957E-2,9.773843922E-3,7.330383174E-3
2.104177768E0,1.221730467E-2,1.282817032E-2,6.108652335E-3
2.106711204E0,1.343903504E-2,1.343903504E-2,1.099557430E-2
2.108064460E0,1.099557430E-2,1.404990070E-2,9.162978269E-3
2.110814589E0,1.038470957E-2,1.282817032E-2,9.773843922E-3
2.112103960E0,8.552113548E-3,1.343903504E-2,1.343903504E-2
2.114955666E0,9.162978269E-3,1.282817032E-2,1.404990070E-2
2.116265652E0,7.941247895E-3,1.282817032E-2,1.588249579E-2
2.119045858E0,8.552113548E-3,1.466076635E-2,1.466076635E-2
2.120355883E0,9.162978269E-3,1.588249579E-2,1.527163107E-2
2.123147858E0,7.941247895E-3,1.466076635E-2,1.832595654E-2
2.124546691E0,8.552113548E-3,1.282817032E-2,1.954768784E-2
2.127249666E0,7.941247895E-3,1.588249579E-2,1.771509275E-2
2.128554460E0,1.160643995E-2,1.832595654E-2,1.649336144E-2
2.131351820E0,1.221730467E-2,1.527163107E-2,1.893682219E-2
2.132657345E0,1.282817032E-2,1.710422710E-2,1.404990070E-2
2.135453089E0,1.404990070E-2,1.893682219E-2,1.710422710E-2
2.136775037E0,1.282817032E-2,2.199114859E-2,1.710422710E-2
2.139566858E0,1.466076635E-2,2.382374369E-2,1.282817032E-2
2.140870845E0,1.527163107E-2,2.565634064E-2,1.343903504E-2
2.143401421E0,1.527163107E-2,2.626720630E-2,1.649336144E-2
2.145076268E0,1.893682219E-2,3.176499158E-2,1.038470957E-2
2.147616191E0,1.710422710E-2,3.359758854E-2,1.404990070E-2
2.149089729E0,2.015855350E-2,3.787364438E-2,1.038470957E-2
2.151606921E0,2.260201424E-2,4.031710699E-2,9.773843922E-3
2.153529114E0,2.321287990E-2,4.276056588E-2,8.552113548E-3
2.156014974E0,2.504547499E-2,4.459316283E-2,9.162978269E-3
2.157343383E0,2.321287990E-2,4.520402849E-2,1.160643995E-2
2.160089858E0,2.626720630E-2,4.948008433E-2,1.038470957E-2
2.161381652E0,2.871066704E-2,4.948008433E-2,9.162978269E-3
2.164046152E0,2.932153270E-2,4.886921868E-2,8.552113548E-3
2.165630191E0,3.115412779E-2,4.948008433E-2,1.038470957E-2
2.168294627E0,3.298672289E-2,4.642575979E-2,1.221730467E-2
2.169632075E0,3.481931984E-2,4.886921868E-2,4.886921961E-3
2.172114614E0,3.604105115E-2,4.581489414E-2,6.108652335E-3
2.173743460E0,3.665191308E-2,4.214970022E-2,5.497787148E-3
2.176524550E0,3.848451003E-2,3.848451003E-2,0.000000000E0
2.177793037E0,3.726277873E-2,3.604105115E-2,3.665191587E-3
2.180641550E0,4.031710699E-2,3.237585723E-2,3.665191587E-3
2.182041075E0,4.092797264E-2,2.871066704E-2,6.108652451E-4
2.184744050E0,4.092797264E-2,2.565634064E-2,-1.221730490E-3
2.186265844E0,4.337143153E-2,2.199114859E-2,2.443460980E-3
2.188846666E0,4.214970022E-2,1.588249579E-2,0.000000000E0
2.190229729E0,4.520402849E-2,1.588249579E-2,-1.832595794E-3
2.192948858E0,4.214970022E-2,1.099557430E-2,6.108652451E-4
2.194228383E0,4.459316283E-2,7.941247895E-3,-4.886921961E-3
2.197089358E0,4.459316283E-2,7.330383174E-3,-2.443460980E-3
2.198414344E0,4.398229718E-2,4.276056774E-3,-3.665191587E-3
2.201178127E0,4.520402849E-2,2.443460980E-3,-3.665191587E-3
2.202461229E0,4.459316283E-2,0.000000000E0,-3.054326167E-3
2.205280704E0,4.581489414E-2,-6.108652451E-4,-1.221730490E-3
2.206762152E0,4.459316283E-2,-1.221730490E-3,-4.886921961E-3
2.209382896E0,4.581489414E-2,-6.108652451E-4,-2.443460980E-3
2.210758152E0,4.031710699E-2,-3.054326167E-3,-3.665191587E-3
2.213485089E0,4.459316283E-2,-1.832595794E-3,-4.276056774E-3
2.214854229E0,3.848451003E-2,-2.443460980E-3,-3.665191587E-3
2.217587166E0,4.092797264E-2,-1.221730490E-3,-4.886921961E-3
2.218901383E0,3.909537569E-2,-3.054326167E-3,-5.497787148E-3
2.221702319E0,3.726277873E-2,-1.221730490E-3,-5.497787148E-3
2.222997729E0,3.604105115E-2,-3.665191587E-3,-6.108652451E-4
2.225575960E0,3.420845419E-2,-1.832595794E-3,-4.886921961E-3
2.227213921E0,3.176499158E-2,-1.832595794E-3,-1.832595794E-3
2.229679691E0,3.176499158E-2,-1.832595794E-3,-3.054326167E-3
2.231189614E0,3.237585723E-2,-3.054326167E-3,-3.665191587E-3
2.233655537E0,3.054326214E-2,-3.665191587E-3,-2.443460980E-3
2.235320691E0,2.687807009E-2,-1.832595794E-3,-3.054326167E-3
2.238151512E0,2.382374369E-2,-2.443460980E-3,-2.443460980E-3
2.239356191E0,2.443460934E-2,-1.832595794E-3,0.000000000E0
2.242017421E0,2.321287990E-2,-4.886921961E-3,-4.276056774E-3
2.243546152E0,2.076941915E-2,-6.108652335E-3,-1.221730490E-3
2.246112421E0,1.771509275E-2,-5.497787148E-3,3.054326167E-3
2.247707921E0,1.771509275E-2,-6.108652335E-3,0.000000000E0
2.250295998E0,1.832595654E-2,-5.497787148E-3,-1.832595794E-3
2.251740883E0,1.527163107E-2,-9.773843922E-3,2.443460980E-3
2.254399960E0,1.160643995E-2,-7.330383174E-3,0.000000000E0
2.255912229E0,8.552113548E-3,-8.552113548E-3,1.832595794E-3
2.258636781E0,9.162978269E-3,-9.162978269E-3,3.665191587E-3
2.260191614E0,6.719517522E-3,-9.162978269E-3,1.221730490E-3
2.262752088E0,3.054326167E-3,-1.099557430E-2,3.054326167E-3
2.264129498E0,5.497787148E-3,-8.552113548E-3,2.443460980E-3
2.266855473E0,1.832595794E-3,-1.221730467E-2,1.832595794E-3
2.268278075E0,-1.832595794E-3,-9.162978269E-3,6.108652335E-3
2.270957396E0,-1.832595794E-3,-1.099557430E-2,3.054326167E-3
2.272345844E0,-4.886921961E-3,-1.038470957E-2,6.108652335E-3
2.275059512E0,-5.497787148E-3,-1.038470957E-2,4.886921961E-3
2.276371844E0,-4.276056774E-3,-1.099557430E-2,4.886921961E-3
2.279200127E0,-1.038470957E-2,-1.160643995E-2,9.162978269E-3
2.280658344E0,-1.038470957E-2,-1.160643995E-2,5.497787148E-3
2.283289319E0,-1.343903504E-2,-1.099557430E-2,7.941247895E-3
2.284611421E0,-1.404990070E-2,-1.038470957E-2,8.552113548E-3
2.287391358E0,-1.404990070E-2,-8.552113548E-3,6.108652335E-3
2.288880537E0,-1.282817032E-2,-8.552113548E-3,7.330383174E-3
2.291494358E0,-1.588249579E-2,-1.099557430E-2,8.552113548E-3
2.292782344E0,-1.343903504E-2,-1.099557430E-2,8.552113548E-3
2.295597704E0,-1.527163107E-2,-9.162978269E-3,9.162978269E-3
2.296984921E0,-1.893682219E-2,-1.038470957E-2,1.282817032E-2
2.299716011E0,-1.649336144E-2,-9.773843922E-3,8.552113548E-3
2.301007729E0,-1.893682219E-2,-9.162978269E-3,7.330383174E-3
2.303830934E0,-1.771509275E-2,-9.773843922E-3,1.099557430E-2
2.305098652E0,-1.649336144E-2,-9.773843922E-3,5.497787148E-3
2.307842691E0,-1.710422710E-2,-7.941247895E-3,9.162978269E-3
2.309353075E0,-2.015855350E-2,-1.038470957E-2,8.552113548E-3
2.311871844E0,-1.710422710E-2,-1.221730467E-2,9.162978269E-3
2.313338037E0,-1.771509275E-2,-1.282817032E-2,8.552113548E-3
2.315804344E0,-1.649336144E-2,-9.773843922E-3,5.497787148E-3
2.317469114E0,-1.893682219E-2,-1.099557430E-2,6.108652335E-3
2.320280896E0,-1.771509275E-2,-1.282817032E-2,8.552113548E-3
2.321547921E0,-1.588249579E-2,-1.343903504E-2,5.497787148E-3
2.324294267E0,-1.527163107E-2,-1.282817032E-2,7.941247895E-3
2.325728191E0,-1.771509275E-2,-1.343903504E-2,4.886921961E-3
2.328240344E0,-1.649336144E-2,-1.466076635E-2,4.276056774E-3
2.329939498E0,-1.588249579E-2,-1.343903504E-2,8.552113548E-3
2.332380767E0,-1.527163107E-2,-1.343903504E-2,5.497787148E-3
2.334159075E0,-1.404990070E-2,-1.466076635E-2,6.719517522E-3
2.336326498E0,-1.343903504E-2,-1.466076635E-2,4.886921961E-3
2.338369344E0,-1.466076635E-2,-1.649336144E-2,4.886921961E-3
2.340768665E0,-1.221730467E-2,-1.343903504E-2,6.108652335E-3
2.342054691E0,-1.466076635E-2,-1.710422710E-2,5.497787148E-3
2.344884357E0,-1.466076635E-2,-1.588249579E-2,3.665191587E-3
2.346304498E0,-1.527163107E-2,-1.710422710E-2,4.886921961E-3
2.348987665E0,-1.588249579E-2,-1.710422710E-2,6.719517522E-3
2.350350383E0,-1.466076635E-2,-1.771509275E-2,3.665191587E-3
2.353090127E0,-9.773843922E-3,-1.893682219E-2,4.276056774E-3
2.354441614E0,-1.221730467E-2,-1.893682219E-2,6.719517522E-3
2.357193819E0,-1.221730467E-2,-1.832595654E-2,7.330383174E-3
2.358472229E0,-1.221730467E-2,-1.832595654E-2,4.886921961E-3
2.361335165E0,-1.282817032E-2,-1.771509275E-2,9.773843922E-3
2.363134152E0,-1.404990070E-2,-1.710422710E-2,6.719517522E-3
2.365424742E0,-9.162978269E-3,-1.710422710E-2,7.330383174E-3
2.366731537E0,-1.099557430E-2,-1.527163107E-2,6.719517522E-3
2.369528165E0,-9.773843922E-3,-1.466076635E-2,7.941247895E-3
2.370936883E0,-7.330383174E-3,-1.221730467E-2,7.330383174E-3
2.373632203E0,-6.108652335E-3,-9.162978269E-3,6.719517522E-3
2.374974152E0,-7.941247895E-3,-7.330383174E-3,6.108652335E-3
2.377734934E0,-6.108652335E-3,-3.665191587E-3,9.162978269E-3
2.379505960E0,-7.330383174E-3,-6.108652451E-4,7.941247895E-3
2.381837896E0,-4.276056774E-3,1.832595794E-3,9.162978269E-3
2.383119190E0,-4.276056774E-3,3.665191587E-3,8.552113548E-3
2.385952896E0,-4.886921961E-3,7.941247895E-3,7.330383174E-3
2.387342075E0,-4.886921961E-3,1.038470957E-2,9.162978269E-3
2.389891614E0,-6.108652451E-4,1.343903504E-2,1.038470957E-2
2.391436844E0,-3.054326167E-3,1.466076635E-2,7.941247895E-3
2.393916421E0,-5.497787148E-3,1.588249579E-2,9.773843922E-3
2.395617844E0,-1.221730490E-3,1.832595654E-2,9.773843922E-3
2.397972806E0,-4.886921961E-3,2.199114859E-2,1.099557430E-2
2.399574114E0,-4.886921961E-3,2.076941915E-2,8.552113548E-3
2.402403780E0,-4.276056774E-3,2.199114859E-2,7.941247895E-3
2.403657114E0,-5.497787148E-3,2.138028294E-2,9.162978269E-3
2.406279806E0,-6.108652335E-3,2.199114859E-2,8.552113548E-3
2.407772229E0,-6.719517522E-3,1.954768784E-2,7.330383174E-3
2.410440575E0,-8.552113548E-3,1.893682219E-2,9.773843922E-3
2.411947652E0,-1.160643995E-2,1.832595654E-2,1.099557430E-2
2.414684665E0,-1.038470957E-2,1.649336144E-2,9.773843922E-3
2.416048998E0,-1.221730467E-2,1.343903504E-2,9.162978269E-3
2.418568152E0,-1.343903504E-2,1.221730467E-2,1.343903504E-2
2.420276690E0,-1.710422710E-2,1.038470957E-2,1.099557430E-2
2.422913242E0,-1.588249579E-2,7.330383174E-3,1.160643995E-2
2.424296537E0,-1.771509275E-2,5.497787148E-3,1.038470957E-2
2.427029972E0,-1.954768784E-2,3.054326167E-3,1.282817032E-2
2.428385844E0,-2.015855350E-2,1.221730490E-3,1.160643995E-2
2.431133780E0,-2.138028294E-2,0.000000000E0,1.466076635E-2
2.432596267E0,-2.260201424E-2,-1.221730490E-3,9.162978269E-3
2.435236203E0,-2.260201424E-2,-5.497787148E-3,1.221730467E-2
2.436472960E0,-2.260201424E-2,-6.108652335E-3,1.343903504E-2
2.439339472E0,-2.626720630E-2,-7.941247895E-3,1.099557430E-2
2.440630537E0,-2.687807009E-2,-6.108652335E-3,1.099557430E-2
2.443480242E0,-2.932153270E-2,-8.552113548E-3,1.527163107E-2
2.444857344E0,-2.504547499E-2,-8.552113548E-3,1.038470957E-2
2.447569549E0,-2.809980139E-2,-9.773843922E-3,1.160643995E-2
2.448847614E0,-3.115412779E-2,-9.773843922E-3,1.404990070E-2
2.451671972E0,-2.871066704E-2,-1.099557430E-2,8.552113548E-3
2.453220114E0,-2.993239649E-2,-9.773843922E-3,1.221730467E-2
2.455775280E0,-3.237585723E-2,-9.773843922E-3,1.221730467E-2
2.457088383E0,-3.237585723E-2,-1.099557430E-2,9.162978269E-3
2.459877357E0,-3.115412779E-2,-9.773843922E-3,7.941247895E-3
2.461206729E0,-3.176499158E-2,-9.773843922E-3,6.108652335E-3
2.463980472E0,-3.359758854E-2,-9.773843922E-3,8.552113548E-3
2.465584383E0,-3.481931984E-2,-8.552113548E-3,9.162978269E-3
2.468096165E0,-3.543018550E-2,-7.330383174E-3,6.108652335E-3
2.469653498E0,-3.359758854E-2,-7.941247895E-3,2.443460980E-3
2.471898767E0,-3.665191308E-2,-7.941247895E-3,6.108652335E-3
2.473584460E0,-3.726277873E-2,-4.886921961E-3,7.330383174E-3
2.476192344E0,-3.726277873E-2,-3.665191587E-3,4.886921961E-3
2.477628537E0,-3.604105115E-2,-3.665191587E-3,3.665191587E-3
2.480123960E0,-3.787364438E-2,-4.276056774E-3,8.552113548E-3
2.481743729E0,-3.420845419E-2,-1.832595794E-3,6.108652451E-4
2.484545626E0,-3.787364438E-2,-1.832595794E-3,7.941247895E-3
2.485943306E0,-3.787364438E-2,1.221730490E-3,4.276056774E-3
2.488514383E0,-3.726277873E-2,0.000000000E0,3.665191587E-3
2.489941190E0,-3.359758854E-2,2.443460980E-3,6.108652335E-3
2.492598729E0,-3.481931984E-2,1.221730490E-3,6.108652335E-3
2.494084998E0,-3.420845419E-2,3.054326167E-3,5.497787148E-3
2.496576690E0,-3.543018550E-2,3.054326167E-3,7.941247895E-3
2.498239883E0,-3.665191308E-2,4.276056774E-3,3.665191587E-3
2.500732152E0,-3.604105115E-2,4.276056774E-3,4.886921961E-3
2.502334883E0,-3.543018550E-2,4.276056774E-3,1.038470957E-2
2.505030357E0,-3.481931984E-2,5.497787148E-3,7.330383174E-3
2.506702652E0,-3.481931984E-2,5.497787148E-3,2.443460980E-3
2.509144011E0,-3.420845419E-2,3.665191587E-3,9.162978269E-3
2.510459575E0,-3.359758854E-2,4.886921961E-3,7.330383174E-3
2.513246472E0,-3.420845419E-2,3.665191587E-3,8.552113548E-3
2.514779190E0,-3.420845419E-2,3.054326167E-3,1.160643995E-2
2.517349318E0,-3.420845419E-2,4.886921961E-3,7.330383174E-3
2.518748498E0,-3.543018550E-2,5.497787148E-3,6.719517522E-3
2.521452049E0,-2.993239649E-2,3.665191587E-3,7.941247895E-3
2.522734575E0,-3.237585723E-2,4.886921961E-3,6.108652335E-3
2.525592972E0,-2.993239649E-2,4.276056774E-3,6.108652335E-3
2.527134960E0,-3.054326214E-2,4.886921961E-3,8.552113548E-3
2.529682818E0,-2.993239649E-2,5.497787148E-3,3.665191587E-3
2.530988806E0,-3.054326214E-2,3.054326167E-3,4.886921961E-3
2.533785818E0,-3.115412779E-2,6.108652451E-4,6.719517522E-3
2.535406537E0,-3.176499158E-2,3.665191587E-3,6.108652335E-3
2.537888434E0,-3.115412779E-2,1.832595794E-3,6.108652335E-3
2.539191190E0,-2.871066704E-2,2.443460980E-3,7.330383174E-3
2.541991434E0,-2.993239649E-2,1.221730490E-3,3.054326167E-3
2.543863613E0,-3.115412779E-2,0.000000000E0,6.719517522E-3
2.546093934E0,-3.054326214E-2,-1.832595794E-3,2.443460980E-3
2.547932883E0,-3.115412779E-2,0.000000000E0,2.443460980E-3
2.550210241E0,-3.237585723E-2,-4.276056774E-3,3.665191587E-3
2.551691613E0,-3.359758854E-2,-4.276056774E-3,3.054326167E-3
2.554054690E0,-3.237585723E-2,-4.276056774E-3,2.443460980E-3
2.555700344E0,-3.420845419E-2,-4.276056774E-3,1.832595794E-3
2.558164613E0,-3.543018550E-2,-4.276056774E-3,6.108652451E-4
2.559700575E0,-3.481931984E-2,-6.108652335E-3,6.108652451E-4
2.562518318E0,-3.481931984E-2,-7.941247895E-3,4.276056774E-3
2.563941652E0,-3.604105115E-2,-7.941247895E-3,1.221730490E-3
2.566659203E0,-3.665191308E-2,-7.941247895E-3,-1.221730490E-3
2.567910960E0,-3.726277873E-2,-1.038470957E-2,6.108652451E-4
2.570735049E0,-4.092797264E-2,-1.221730467E-2,1.221730490E-3
2.572040883E0,-3.909537569E-2,-1.038470957E-2,-1.221730490E-3
2.574837780E0,-4.092797264E-2,-1.099557430E-2,0.000000000E0
2.576240344E0,-3.970624134E-2,-9.773843922E-3,-3.054326167E-3
2.578940741E0,-4.092797264E-2,-1.099557430E-2,-2.443460980E-3
2.580248075E0,-3.909537569E-2,-1.038470957E-2,-1.221730490E-3
2.582765883E0,-4.092797264E-2,-1.038470957E-2,-3.665191587E-3
2.584657537E0,-3.970624134E-2,-1.038470957E-2,-6.719517522E-3
2.587145356E0,-3.970624134E-2,-1.099557430E-2,-4.276056774E-3
2.588471883E0,-3.909537569E-2,-1.099557430E-2,-6.719517522E-3
2.591260356E0,-4.031710699E-2,-1.221730467E-2,-4.276056774E-3
2.592490767E0,-4.031710699E-2,-1.099557430E-2,-3.665191587E-3
2.595362087E0,-3.970624134E-2,-7.941247895E-3,-3.665191587E-3
2.596771344E0,-3.726277873E-2,-7.941247895E-3,-4.886921961E-3
2.599463549E0,-3.787364438E-2,-7.330383174E-3,-2.443460980E-3
2.600766729E0,-4.031710699E-2,-7.330383174E-3,-5.497787148E-3
2.603566395E0,-3.726277873E-2,-7.941247895E-3,-1.221730490E-3
2.605146152E0,-3.726277873E-2,-4.886921961E-3,-1.221730490E-3
2.607706972E0,-3.970624134E-2,-4.276056774E-3,-2.443460980E-3
2.609066190E0,-3.176499158E-2,-5.497787148E-3,-2.443460980E-3
2.611794933E0,-3.787364438E-2,-6.108652335E-3,-1.832595794E-3
2.613109190E0,-3.604105115E-2,-5.497787148E-3,-4.276056774E-3
2.615897549E0,-3.543018550E-2,-4.886921961E-3,-2.443460980E-3
2.617281075E0,-3.420845419E-2,-7.330383174E-3,-3.665191587E-3
2.620000203E0,-3.665191308E-2,-7.330383174E-3,-2.443460980E-3
2.621299152E0,-3.543018550E-2,-6.719517522E-3,-1.832595794E-3
2.624101395E0,-3.543018550E-2,-6.719517522E-3,-2.443460980E-3
2.625373267E0,-3.420845419E-2,-9.162978269E-3,-1.221730490E-3
2.628204010E0,-3.298672289E-2,-1.099557430E-2,-1.832595794E-3
2.629743960E0,-3.420845419E-2,-1.038470957E-2,-1.221730490E-3
2.632318626E0,-3.481931984E-2,-1.466076635E-2,6.108652451E-4
2.633646113E0,-3.237585723E-2,-1.099557430E-2,-1.221730490E-3
2.636177921E0,-3.420845419E-2,-1.099557430E-2,-6.108652451E-4
2.638089075E0,-3.298672289E-2,-1.160643995E-2,-1.221730490E-3
2.640316460E0,-3.237585723E-2,-1.466076635E-2,1.221730490E-3
2.641893767E0,-3.237585723E-2,-1.282817032E-2,1.221730490E-3
2.644508806E0,-2.809980139E-2,-1.282817032E-2,-6.108652451E-4
2.645951498E0,-3.054326214E-2,-1.221730467E-2,-1.221730490E-3
2.648766702E0,-3.237585723E-2,-1.404990070E-2,-1.221730490E-3
2.650052960E0,-2.932153270E-2,-1.282817032E-2,0.000000000E0
2.652612460E0,-2.809980139E-2,-1.160643995E-2,1.221730490E-3
2.654245652E0,-2.809980139E-2,-1.343903504E-2,3.054326167E-3
2.656711729E0,-2.748893574E-2,-1.160643995E-2,6.108652451E-4
2.658324075E0,-2.504547499E-2,-1.099557430E-2,0.000000000E0
2.661045049E0,-2.748893574E-2,-1.343903504E-2,6.108652451E-4
2.662414806E0,-2.443460934E-2,-1.221730467E-2,0.000000000E0
2.664946229E0,-2.321287990E-2,-1.221730467E-2,-1.832595794E-3
2.666690344E0,-2.382374369E-2,-1.282817032E-2,-1.221730490E-3
2.669274856E0,-2.260201424E-2,-1.160643995E-2,-1.832595794E-3
2.670993652E0,-2.199114859E-2,-1.221730467E-2,-1.832595794E-3
2.673391010E0,-2.321287990E-2,-1.466076635E-2,-1.221730490E-3
2.674932652E0,-2.260201424E-2,-1.649336144E-2,-1.221730490E-3
2.677493664E0,-2.260201424E-2,-1.527163107E-2,-1.221730490E-3
2.678999306E0,-2.138028294E-2,-1.771509275E-2,-1.832595794E-3
2.681596087E0,-2.076941915E-2,-1.832595654E-2,-3.054326167E-3
2.682908036E0,-1.771509275E-2,-1.771509275E-2,-3.665191587E-3
2.685698818E0,-1.649336144E-2,-1.771509275E-2,-6.108652335E-3
2.686973652E0,-1.588249579E-2,-1.954768784E-2,-1.832595794E-3
2.689840433E0,-1.649336144E-2,-2.015855350E-2,-3.054326167E-3
2.691297729E0,-1.588249579E-2,-1.893682219E-2,-6.108652451E-4
2.693930279E0,-1.221730467E-2,-2.199114859E-2,-2.443460980E-3
2.695233113E0,-1.160643995E-2,-2.321287990E-2,-3.054326167E-3
2.698033010E0,-1.099557430E-2,-2.504547499E-2,-3.665191587E-3
2.699526075E0,-1.160643995E-2,-2.382374369E-2,-2.443460980E-3
2.702135241E0,-1.099557430E-2,-2.626720630E-2,0.000000000E0
2.703403575E0,-9.162978269E-3,-2.626720630E-2,-1.221730490E-3
2.706237625E0,-1.099557430E-2,-2.565634064E-2,6.108652451E-4
2.708271625E0,-1.038470957E-2,-2.626720630E-2,1.832595794E-3
2.710354394E0,-7.330383174E-3,-2.871066704E-2,6.108652451E-4
2.711652613E0,-8.552113548E-3,-2.626720630E-2,3.054326167E-3
2.714468933E0,-9.162978269E-3,-2.748893574E-2,-6.108652451E-4
2.716118652E0,-7.330383174E-3,-2.871066704E-2,6.108652451E-4
2.718206921E0,-1.038470957E-2,-2.748893574E-2,1.221730490E-3
2.720069690E0,-9.162978269E-3,-2.748893574E-2,0.000000000E0
2.722457729E0,-6.719517522E-3,-2.809980139E-2,1.221730490E-3
2.723973613E0,-9.773843922E-3,-2.932153270E-2,4.276056774E-3
2.726494421E0,-7.330383174E-3,-2.932153270E-2,1.832595794E-3
2.728239690E0,-7.330383174E-3,-2.809980139E-2,0.000000000E0
2.730916048E0,-6.719517522E-3,-2.748893574E-2,1.221730490E-3
2.732265267E0,-8.552113548E-3,-2.809980139E-2,1.832595794E-3
2.734990241E0,-9.162978269E-3,-2.748893574E-2,0.000000000E0
2.736301536E0,-7.941247895E-3,-2.809980139E-2,6.108652451E-4
2.738896652E0,-7.941247895E-3,-2.687807009E-2,0.000000000E0
2.740450844E0,-6.719517522E-3,-2.748893574E-2,0.000000000E0
2.743194164E0,-7.941247895E-3,-2.748893574E-2,1.221730490E-3
2.744591267E0,-6.108652335E-3,-2.932153270E-2,6.108652451E-4
2.747001844E0,-6.719517522E-3,-2.565634064E-2,-6.108652451E-4
2.748669421E0,-5.497787148E-3,-2.504547499E-2,-1.221730490E-3
2.751397240E0,-8.552113548E-3,-2.504547499E-2,1.832595794E-3
2.752845883E0,-4.886921961E-3,-2.321287990E-2,2.443460980E-3
2.755510933E0,-4.276056774E-3,-2.443460934E-2,1.832595794E-3
2.757046498E0,-6.719517522E-3,-2.260201424E-2,1.832595794E-3
2.759611971E0,-3.054326167E-3,-2.015855350E-2,1.221730490E-3
2.761155959E0,-4.886921961E-3,-2.076941915E-2,6.108652451E-4
2.763712894E0,-3.054326167E-3,-1.954768784E-2,3.054326167E-3
2.765252844E0,-1.832595794E-3,-1.832595654E-2,3.054326167E-3
2.767814317E0,-2.443460980E-3,-1.954768784E-2,4.886921961E-3
2.769192575E0,0.000000000E0,-1.954768784E-2,4.276056774E-3
2.771954087E0,-3.054326167E-3,-1.710422710E-2,4.886921961E-3
2.773311883E0,-1.221730490E-3,-1.649336144E-2,4.276056774E-3
2.776041740E0,-1.221730490E-3,-1.710422710E-2,6.108652335E-3
2.777328767E0,-2.443460980E-3,-1.710422710E-2,6.719517522E-3
2.780143433E0,-2.443460980E-3,-1.649336144E-2,4.886921961E-3
2.781519459E0,-6.108652451E-4,-1.588249579E-2,4.276056774E-3
2.784244971E0,0.000000000E0,-1.649336144E-2,3.665191587E-3
2.785562959E0,-1.832595794E-3,-1.649336144E-2,5.497787148E-3
2.788346971E0,-1.832595794E-3,-1.404990070E-2,5.497787148E-3
2.789727152E0,-1.221730490E-3,-1.282817032E-2,3.054326167E-3
2.792450510E0,-1.832595794E-3,-1.282817032E-2,1.832595794E-3
2.793943152E0,-2.443460980E-3,-1.282817032E-2,4.886921961E-3
2.796564510E0,-4.276056774E-3,-1.160643995E-2,1.832595794E-3
2.798070113E0,-4.886921961E-3,-9.773843922E-3,3.665191587E-3
2.800321036E0,-5.497787148E-3,-9.773843922E-3,2.443460980E-3
2.802037459E0,-2.443460980E-3,-6.108652335E-3,4.886921961E-3
2.804548113E0,-4.276056774E-3,-2.443460980E-3,3.665191587E-3
2.806068113E0,-2.443460980E-3,-2.443460980E-3,3.665191587E-3
2.808624921E0,-4.886921961E-3,6.108652451E-4,1.832595794E-3
2.810177959E0,-4.276056774E-3,1.832595794E-3,4.886921961E-3
2.813008894E0,-5.497787148E-3,4.886921961E-3,3.665191587E-3
2.814328575E0,-3.054326167E-3,7.330383174E-3,4.886921961E-3
2.816933575E0,-3.665191587E-3,8.552113548E-3,3.054326167E-3
2.818376882E0,-2.443460980E-3,9.773843922E-3,4.276056774E-3
2.821018113E0,-3.665191587E-3,1.282817032E-2,4.276056774E-3
2.822578536E0,-2.443460980E-3,1.466076635E-2,4.886921961E-3
2.825288740E0,-3.054326167E-3,1.466076635E-2,7.330383174E-3
2.827247152E0,-4.276056774E-3,1.404990070E-2,3.054326167E-3
2.829112652E0,-1.221730490E-3,1.527163107E-2,4.276056774E-3
2.830780267E0,-1.221730490E-3,1.588249579E-2,3.054326167E-3
2.833491317E0,-2.443460980E-3,1.588249579E-2,3.054326167E-3
2.834792729E0,-1.832595794E-3,1.343903504E-2,6.108652335E-3
2.837607317E0,-6.108652451E-4,1.343903504E-2,3.665191587E-3
2.838997844E0,0.000000000E0,1.099557430E-2,1.832595794E-3
2.841709971E0,-6.108652451E-4,7.941247895E-3,3.054326167E-3
2.843113152E0,1.221730490E-3,4.276056774E-3,1.221730490E-3
2.845811355E0,-1.832595794E-3,1.832595794E-3,3.054326167E-3
2.847150729E0,-6.108652451E-4,-3.054326167E-3,1.832595794E-3
2.849914471E0,-1.832595794E-3,-6.108652335E-3,3.054326167E-3
2.851174267E0,-3.054326167E-3,-7.330383174E-3,4.886921961E-3
2.854055048E0,-1.221730490E-3,-1.099557430E-2,2.443460980E-3
2.855439998E0,0.000000000E0,-1.282817032E-2,4.886921961E-3
2.858142971E0,-2.443460980E-3,-1.466076635E-2,3.665191587E-3
2.859580767E0,-1.221730490E-3,-1.893682219E-2,4.276056774E-3
2.862245663E0,-2.443460980E-3,-2.321287990E-2,6.108652335E-3
2.863683767E0,-1.832595794E-3,-2.382374369E-2,6.108652451E-4
2.866349317E0,-3.054326167E-3,-2.504547499E-2,4.276056774E-3
2.868013767E0,-5.497787148E-3,-2.871066704E-2,4.886921961E-3
2.870450971E0,-7.330383174E-3,-3.115412779E-2,4.276056774E-3
2.871970382E0,-6.719517522E-3,-3.359758854E-2,3.054326167E-3
2.874553702E0,-1.099557430E-2,-3.481931984E-2,5.497787148E-3
2.875901267E0,-9.773843922E-3,-3.543018550E-2,4.276056774E-3
2.878668586E0,-9.773843922E-3,-3.481931984E-2,3.054326167E-3
2.880009844E0,-1.466076635E-2,-3.787364438E-2,4.886921961E-3
2.882482267E0,-1.710422710E-2,-3.970624134E-2,1.832595794E-3
2.884185498E0,-1.771509275E-2,-3.970624134E-2,4.276056774E-3
2.886814152E0,-1.771509275E-2,-3.970624134E-2,6.719517522E-3
2.888121767E0,-1.771509275E-2,-3.909537569E-2,6.108652451E-4
2.890821306E0,-2.015855350E-2,-3.665191308E-2,4.276056774E-3
2.892280113E0,-2.076941915E-2,-3.543018550E-2,6.719517522E-3
2.895117625E0,-2.138028294E-2,-3.359758854E-2,5.497787148E-3
2.896514998E0,-2.382374369E-2,-3.359758854E-2,7.330383174E-3
2.899108113E0,-2.321287990E-2,-3.420845419E-2,6.719517522E-3
2.900796113E0,-2.443460934E-2,-3.359758854E-2,6.719517522E-3
2.903136959E0,-2.687807009E-2,-3.359758854E-2,1.038470957E-2
2.904891882E0,-2.382374369E-2,-3.359758854E-2,1.099557430E-2
2.907399624E0,-2.382374369E-2,-3.543018550E-2,9.162978269E-3
2.908801729E0,-2.260201424E-2,-3.726277873E-2,8.552113548E-3
2.911339113E0,-2.443460934E-2,-3.604105115E-2,9.773843922E-3
2.912948652E0,-2.260201424E-2,-3.848451003E-2,9.162978269E-3
2.915627778E0,-2.260201424E-2,-3.848451003E-2,8.552113548E-3
2.916955190E0,-2.138028294E-2,-3.909537569E-2,7.330383174E-3
2.919744048E0,-2.260201424E-2,-4.031710699E-2,9.162978269E-3
2.921092344E0,-2.260201424E-2,-4.214970022E-2,1.038470957E-2
2.923845778E0,-1.954768784E-2,-4.153883830E-2,8.552113548E-3
2.925239921E0,-2.138028294E-2,-4.214970022E-2,6.719517522E-3
2.927948547E0,-2.199114859E-2,-4.276056588E-2,1.160643995E-2
2.929323382E0,-2.015855350E-2,-4.031710699E-2,6.108652335E-3
2.932050740E0,-2.321287990E-2,-4.153883830E-2,6.719517522E-3
2.933343921E0,-2.076941915E-2,-3.909537569E-2,3.054326167E-3
2.936190355E0,-2.260201424E-2,-3.909537569E-2,3.054326167E-3
2.937560382E0,-2.443460934E-2,-3.665191308E-2,3.054326167E-3
2.940277124E0,-2.382374369E-2,-3.909537569E-2,3.665191587E-3
2.941830075E0,-2.443460934E-2,-3.481931984E-2,1.832595794E-3
2.944379778E0,-2.626720630E-2,-3.237585723E-2,2.443460980E-3
2.945760267E0,-2.809980139E-2,-2.993239649E-2,1.832595794E-3
2.948482278E0,-2.687807009E-2,-3.054326214E-2,0.000000000E0
2.950040844E0,-2.565634064E-2,-2.626720630E-2,-6.108652451E-4
2.952585817E0,-2.993239649E-2,-2.626720630E-2,-1.221730490E-3
2.954215498E0,-2.809980139E-2,-2.260201424E-2,-4.276056774E-3
2.956688701E0,-3.054326214E-2,-2.076941915E-2,-1.832595794E-3
2.958044652E0,-3.176499158E-2,-2.076941915E-2,-3.665191587E-3
2.960804355E0,-3.054326214E-2,-1.832595654E-2,-5.497787148E-3
2.962452344E0,-3.176499158E-2,-1.710422710E-2,-5.497787148E-3
2.964760498E0,-3.359758854E-2,-1.771509275E-2,-3.665191587E-3
2.966324959E0,-3.359758854E-2,-1.588249579E-2,-6.108652335E-3
2.968805190E0,-3.481931984E-2,-1.038470957E-2,-6.719517522E-3
2.970284729E0,-3.665191308E-2,-1.099557430E-2,-6.719517522E-3
2.972852459E0,-3.481931984E-2,-1.160643995E-2,-6.108652335E-3
2.974391805E0,-3.237585723E-2,-1.282817032E-2,-5.497787148E-3
2.977246163E0,-3.420845419E-2,-1.038470957E-2,-7.941247895E-3
2.978873036E0,-3.298672289E-2,-9.773843922E-3,-7.330383174E-3
2.981176382E0,-3.359758854E-2,-1.038470957E-2,-5.497787148E-3
2.982767382E0,-3.237585723E-2,-9.773843922E-3,-9.773843922E-3
2.985419932E0,-3.176499158E-2,-9.162978269E-3,-7.330383174E-3
2.986966959E0,-3.054326214E-2,-8.552113548E-3,-4.886921961E-3
2.989511498E0,-2.809980139E-2,-9.162978269E-3,-9.773843922E-3
2.991138190E0,-3.115412779E-2,-7.330383174E-3,-6.108652335E-3
2.993299113E0,-3.176499158E-2,-8.552113548E-3,-3.054326167E-3
2.994974652E0,-2.993239649E-2,-6.108652335E-3,-6.719517522E-3
2.997722201E0,-2.932153270E-2,-7.330383174E-3,-7.330383174E-3
2.999002267E0,-2.932153270E-2,-4.276056774E-3,-1.221730490E-3
3.001838047E0,-2.871066704E-2,-4.886921961E-3,-9.162978269E-3
3.003198729E0,-2.993239649E-2,-1.221730490E-3,-6.108652335E-3
3.005940701E0,-2.809980139E-2,-1.221730490E-3,-2.443460980E-3
3.007509459E0,-2.687807009E-2,-6.108652451E-4,-7.330383174E-3
3.010042778E0,-2.809980139E-2,1.832595794E-3,-2.443460980E-3
3.011415498E0,-2.687807009E-2,1.832595794E-3,-4.886921961E-3
3.014145316E0,-2.748893574E-2,4.276056774E-3,-6.108652335E-3
3.015451575E0,-2.993239649E-2,2.443460980E-3,-4.276056774E-3
3.018286201E0,-2.748893574E-2,4.276056774E-3,-4.276056774E-3
3.019630805E0,-2.626720630E-2,4.886921961E-3,-6.719517522E-3
3.022375547E0,-2.565634064E-2,7.941247895E-3,-5.497787148E-3
3.023721613E0,-2.382374369E-2,6.719517522E-3,-5.497787148E-3
3.026476393E0,-2.138028294E-2,4.886921961E-3,-7.941247895E-3
3.027850536E0,-2.199114859E-2,3.054326167E-3,-4.886921961E-3
3.030577509E0,-2.260201424E-2,5.497787148E-3,-3.054326167E-3
3.032236267E0,-1.893682219E-2,6.719517522E-3,-3.054326167E-3
3.034679816E0,-1.588249579E-2,6.719517522E-3,-6.108652335E-3
3.036143113E0,-1.221730467E-2,6.108652335E-3,-4.276056774E-3
3.038782086E0,-1.099557430E-2,6.108652335E-3,-4.886921961E-3
3.040108613E0,-6.719517522E-3,4.886921961E-3,-3.054326167E-3
3.042897893E0,-9.162978269E-3,5.497787148E-3,6.108652451E-4
3.044160998E0,-7.941247895E-3,4.276056774E-3,-1.221730490E-3
3.046802805E0,-6.108652335E-3,4.886921961E-3,-1.221730490E-3
3.048453305E0,-6.108652335E-3,2.443460980E-3,3.665191587E-3
3.051037305E0,-4.276056774E-3,3.665191587E-3,6.108652451E-4
3.052551075E0,-6.108652451E-4,1.221730490E-3,3.054326167E-3
3.055013690E0,-6.108652451E-4,-6.108652451E-4,6.108652335E-3
3.056624228E0,-2.443460980E-3,-1.832595794E-3,4.276056774E-3
3.059345047E0,0.000000000E0,6.108652451E-4,5.497787148E-3
3.060725459E0,2.443460980E-3,-1.832595794E-3,7.330383174E-3
3.063261267E0,1.832595794E-3,-4.276056774E-3,6.719517522E-3
3.064750421E0,1.221730490E-3,-4.886921961E-3,6.719517522E-3
3.067339844E0,6.108652451E-4,-7.330383174E-3,8.552113548E-3
3.068931228E0,3.665191587E-3,-5.497787148E-3,7.941247895E-3
3.071529690E0,3.054326167E-3,-4.886921961E-3,8.552113548E-3
3.072960190E0,6.108652451E-4,-5.497787148E-3,1.099557430E-2
3.075408075E0,1.221730490E-3,-5.497787148E-3,1.038470957E-2
3.077047767E0,-1.832595794E-3,-4.276056774E-3,9.162978269E-3
3.079829624E0,-1.221730490E-3,-3.054326167E-3,1.282817032E-2
3.081284959E0,-4.276056774E-3,-2.443460980E-3,1.099557430E-2
3.083945201E0,-3.665191587E-3,-3.054326167E-3,7.330383174E-3
3.085227036E0,-4.276056774E-3,-2.443460980E-3,9.773843922E-3
3.088047701E0,-6.108652335E-3,1.221730490E-3,6.108652335E-3
3.089430959E0,-6.719517522E-3,3.665191587E-3,9.162978269E-3
3.092149893E0,-1.038470957E-2,3.665191587E-3,1.038470957E-2
3.093413036E0,-1.221730467E-2,7.941247895E-3,6.108652335E-3
3.096252508E0,-1.221730467E-2,1.038470957E-2,1.099557430E-2
3.097662652E0,-1.343903504E-2,8.552113548E-3,9.162978269E-3
3.100392624E0,-1.282817032E-2,1.099557430E-2,4.276056774E-3
3.101980344E0,-1.404990070E-2,1.221730467E-2,7.330383174E-3
3.104482624E0,-1.466076635E-2,1.527163107E-2,3.665191587E-3
3.105765844E0,-1.404990070E-2,1.771509275E-2,4.276056774E-3
3.108585393E0,-1.527163107E-2,1.893682219E-2,6.108652335E-3
3.110227036E0,-1.588249579E-2,2.199114859E-2,6.719517522E-3
3.112687624E0,-1.588249579E-2,2.260201424E-2,3.054326167E-3
3.114053652E0,-1.588249579E-2,2.626720630E-2,3.665191587E-3
3.116789085E0,-1.710422710E-2,2.565634064E-2,1.832595794E-3
3.118149113E0,-1.588249579E-2,2.748893574E-2,4.276056774E-3
3.120906278E0,-1.588249579E-2,3.054326214E-2,3.054326167E-3
3.122219228E0,-1.649336144E-2,3.115412779E-2,1.832595794E-3
3.125021201E0,-1.343903504E-2,3.298672289E-2,-1.832595794E-3
3.126414805E0,-1.527163107E-2,3.420845419E-2,3.665191587E-3
3.129052882E0,-1.404990070E-2,3.359758854E-2,2.443460980E-3
3.130713652E0,-1.404990070E-2,3.787364438E-2,1.221730490E-3
3.133106652E0,-1.282817032E-2,3.787364438E-2,1.221730490E-3
3.134510498E0,-1.404990070E-2,3.665191308E-2,3.054326167E-3
3.137013921E0,-1.221730467E-2,3.787364438E-2,0.000000000E0
3.138928305E0,-1.282817032E-2,3.909537569E-2,1.832595794E-3
3.141468585E0,-1.466076635E-2,3.970624134E-2,-6.108652451E-4
3.142749459E0,-1.160643995E-2,3.787364438E-2,1.221730490E-3
3.145503536E0,-1.343903504E-2,3.848451003E-2,6.108652451E-4
3.146932921E0,-1.527163107E-2,3.726277873E-2,-1.221730490E-3
3.149538382E0,-1.404990070E-2,3.787364438E-2,3.054326167E-3
3.151122075E0,-1.160643995E-2,3.604105115E-2,-6.108652451E-4
3.153749277E0,-1.466076635E-2,3.359758854E-2,-6.108652451E-4
3.155042882E0,-1.466076635E-2,3.481931984E-2,-2.443460980E-3
3.157597075E0,-1.282817032E-2,3.298672289E-2,-3.054326167E-3
3.159213344E0,-1.221730467E-2,3.054326214E-2,-4.276056774E-3
3.161979970E0,-1.160643995E-2,2.871066704E-2,-6.108652451E-4
3.163447998E0,-1.404990070E-2,2.871066704E-2,-1.221730490E-3
3.166087267E0,-1.221730467E-2,2.443460934E-2,-3.665191587E-3
3.167469459E0,-1.221730467E-2,2.443460934E-2,0.000000000E0
3.170199316E0,-1.221730467E-2,2.504547499E-2,-3.665191587E-3
3.171657113E0,-8.552113548E-3,2.382374369E-2,-3.054326167E-3
3.174302047E0,-1.160643995E-2,2.260201424E-2,-3.665191587E-3
3.175736459E0,-7.941247895E-3,2.321287990E-2,-3.054326167E-3
3.178405200E0,-7.941247895E-3,2.321287990E-2,-5.497787148E-3
3.179843844E0,-7.941247895E-3,2.260201424E-2,-2.443460980E-3
3.182545816E0,-8.552113548E-3,2.076941915E-2,-4.886921961E-3
3.183857036E0,-7.941247895E-3,2.015855350E-2,-4.886921961E-3
3.186634893E0,-7.330383174E-3,2.015855350E-2,-3.054326167E-3
3.188103690E0,-6.719517522E-3,1.893682219E-2,-3.054326167E-3
3.190737046E0,-7.941247895E-3,1.954768784E-2,-3.665191587E-3
3.192280921E0,-4.886921961E-3,1.954768784E-2,-4.276056774E-3
3.194840970E0,-5.497787148E-3,1.649336144E-2,-1.832595794E-3
3.196634305E0,-4.276056774E-3,1.893682219E-2,-4.886921961E-3
3.198943854E0,-5.497787148E-3,1.710422710E-2,-4.886921961E-3
3.200305498E0,-4.886921961E-3,1.893682219E-2,-4.276056774E-3
3.203046662E0,-7.941247895E-3,1.649336144E-2,-1.221730490E-3
3.204319767E0,-4.886921961E-3,1.588249579E-2,-4.886921961E-3
3.207126190E0,-5.497787148E-3,1.710422710E-2,-5.497787148E-3
3.208492344E0,-6.719517522E-3,1.771509275E-2,-4.276056774E-3
3.210910575E0,-3.665191587E-3,1.954768784E-2,-4.886921961E-3
3.212763536E0,-4.276056774E-3,1.893682219E-2,-7.941247895E-3
3.215315575E0,-5.497787148E-3,1.649336144E-2,-7.330383174E-3
3.216936575E0,-5.497787148E-3,1.771509275E-2,-4.276056774E-3
3.219190575E0,-6.719517522E-3,1.588249579E-2,-1.832595794E-3
3.220779036E0,-7.330383174E-3,1.710422710E-2,-7.330383174E-3
3.223613816E0,-7.330383174E-3,1.588249579E-2,-3.665191587E-3
3.224974959E0,-8.552113548E-3,1.649336144E-2,-4.886921961E-3
3.227538613E0,-4.886921961E-3,1.832595654E-2,-4.886921961E-3
3.229278344E0,-7.941247895E-3,1.832595654E-2,-3.665191587E-3
3.231623036E0,-7.330383174E-3,1.832595654E-2,-4.276056774E-3
3.233180382E0,-7.330383174E-3,1.527163107E-2,-3.054326167E-3
3.235893316E0,-4.886921961E-3,1.588249579E-2,-4.886921961E-3
3.237295305E0,-8.552113548E-3,1.404990070E-2,-3.665191587E-3
3.239773690E0,-6.108652335E-3,1.710422710E-2,-7.330383174E-3
3.241267767E0,-7.941247895E-3,1.588249579E-2,-4.886921961E-3
3.244098123E0,-9.162978269E-3,1.466076635E-2,-2.443460980E-3
3.245654113E0,-7.941247895E-3,1.160643995E-2,-4.276056774E-3
3.248211931E0,-7.941247895E-3,1.099557430E-2,-4.276056774E-3
3.249606382E0,-7.941247895E-3,8.552113548E-3,-6.108652451E-4
3.252313854E0,-6.108652335E-3,6.719517522E-3,-3.665191587E-3
3.253835421E0,-7.330383174E-3,6.719517522E-3,-1.832595794E-3
3.256416008E0,-7.941247895E-3,7.330383174E-3,-6.108652335E-3
3.257701767E0,-7.941247895E-3,5.497787148E-3,-3.665191587E-3
3.260516585E0,-7.330383174E-3,4.276056774E-3,-2.443460980E-3
3.261903690E0,-8.552113548E-3,2.443460980E-3,-3.665191587E-3
3.264656892E0,-7.941247895E-3,1.832595794E-3,-3.054326167E-3
3.266009574E0,-1.099557430E-2,-6.108652451E-4,-2.443460980E-3
3.268746162E0,-9.162978269E-3,-1.832595794E-3,-4.276056774E-3
3.270228805E0,-9.162978269E-3,0.000000000E0,-7.330383174E-3
3.272847238E0,-8.552113548E-3,-6.108652451E-4,-1.832595794E-3
3.274267421E0,-1.038470957E-2,-2.443460980E-3,-4.276056774E-3
3.276949892E0,-1.038470957E-2,0.000000000E0,-3.054326167E-3
3.278219074E0,-1.038470957E-2,-1.832595794E-3,-2.443460980E-3
3.281052238E0,-1.038470957E-2,-1.221730490E-3,-3.665191587E-3
3.282467959E0,-8.552113548E-3,-6.108652451E-4,-3.665191587E-3
3.285154508E0,-1.099557430E-2,6.108652451E-4,-1.221730490E-3
3.286472459E0,-1.038470957E-2,1.221730490E-3,-3.054326167E-3
3.289268354E0,-8.552113548E-3,1.221730490E-3,-4.886921961E-3
3.290718805E0,-9.773843922E-3,3.054326167E-3,-1.832595794E-3
3.293208421E0,-1.221730467E-2,3.665191587E-3,-2.443460980E-3
3.294784921E0,-8.552113548E-3,4.276056774E-3,-1.832595794E-3
3.297296959E0,-7.941247895E-3,4.886921961E-3,-2.443460980E-3
3.298874190E0,-8.552113548E-3,3.665191587E-3,-3.665191587E-3
3.301311613E0,-1.038470957E-2,6.108652335E-3,-1.221730490E-3
3.302919190E0,-9.162978269E-3,7.941247895E-3,-3.665191587E-3
3.305711661E0,-7.330383174E-3,7.941247895E-3,-4.276056774E-3
3.306901459E0,-9.162978269E-3,9.162978269E-3,-3.054326167E-3
3.309540767E0,-6.719517522E-3,8.552113548E-3,-2.443460980E-3
3.311059998E0,-9.773843922E-3,8.552113548E-3,0.000000000E0
3.313886584E0,-8.552113548E-3,1.099557430E-2,-6.108652451E-4
3.315284767E0,-6.719517522E-3,1.160643995E-2,-3.665191587E-3
3.317723921E0,-6.108652335E-3,9.162978269E-3,-2.443460980E-3
3.319287305E0,-7.330383174E-3,1.160643995E-2,6.108652451E-4
3.321891690E0,-7.330383174E-3,9.773843922E-3,1.221730490E-3
3.323343228E0,-4.886921961E-3,8.552113548E-3,6.108652451E-4
3.326191623E0,-6.719517522E-3,8.552113548E-3,-1.221730490E-3
3.327626344E0,-6.719517522E-3,7.941247895E-3,-6.108652451E-4
3.330305046E0,-6.108652335E-3,3.665191587E-3,6.108652451E-4
3.331621613E0,-7.330383174E-3,3.054326167E-3,6.108652451E-4
3.334406815E0,-7.330383174E-3,1.832595794E-3,1.832595794E-3
3.335751536E0,-5.497787148E-3,2.443460980E-3,-1.832595794E-3
3.338507969E0,-4.886921961E-3,1.832595794E-3,-1.221730490E-3
3.339824421E0,-4.276056774E-3,-1.221730490E-3,-1.221730490E-3
3.342609354E0,-3.665191587E-3,-4.886921961E-3,-3.054326167E-3
3.343873498E0,-1.832595794E-3,-3.665191587E-3,-1.832595794E-3
3.346748815E0,-3.054326167E-3,-7.330383174E-3,-1.832595794E-3
3.348107921E0,-1.832595794E-3,-7.941247895E-3,-3.665191587E-3
3.350835930E0,-6.108652451E-4,-8.552113548E-3,-2.443460980E-3
3.352342459E0,-3.665191587E-3,-1.404990070E-2,-1.832595794E-3
3.354936969E0,6.108652451E-4,-1.282817032E-2,-4.276056774E-3
3.356300151E0,0.000000000E0,-1.588249579E-2,-2.443460980E-3
3.359039507E0,1.221730490E-3,-1.710422710E-2,-4.276056774E-3
3.360308574E0,6.108652451E-4,-1.832595654E-2,-4.276056774E-3
3.363142007E0,3.665191587E-3,-2.076941915E-2,-1.832595794E-3
3.364434882E0,4.276056774E-3,-1.954768784E-2,-4.276056774E-3
3.367243738E0,5.497787148E-3,-1.954768784E-2,-4.886921961E-3
3.368658921E0,5.497787148E-3,-2.321287990E-2,-6.108652451E-4
3.371337997E0,6.108652335E-3,-2.199114859E-2,-3.665191587E-3
3.372635959E0,6.719517522E-3,-2.138028294E-2,-6.108652335E-3
3.375134767E0,6.719517522E-3,-2.382374369E-2,-3.665191587E-3
3.376900728E0,9.162978269E-3,-2.138028294E-2,-4.886921961E-3
3.379321844E0,9.773843922E-3,-2.260201424E-2,-6.719517522E-3
3.380844882E0,7.941247895E-3,-2.321287990E-2,-3.665191587E-3
3.383387074E0,9.773843922E-3,-2.138028294E-2,-8.552113548E-3
3.384927497E0,1.038470957E-2,-2.260201424E-2,-7.330383174E-3
3.387801277E0,1.038470957E-2,-2.015855350E-2,-4.886921961E-3
3.389120574E0,1.160643995E-2,-1.832595654E-2,-6.719517522E-3
3.391641190E0,1.343903504E-2,-1.893682219E-2,-4.276056774E-3
3.393222036E0,1.404990070E-2,-1.832595654E-2,-4.276056774E-3
3.395734690E0,1.588249579E-2,-1.588249579E-2,-7.330383174E-3
3.397354613E0,1.466076635E-2,-1.832595654E-2,-6.719517522E-3
3.400078392E0,1.649336144E-2,-1.649336144E-2,-4.886921961E-3
3.401689036E0,1.832595654E-2,-1.588249579E-2,-6.108652335E-3
3.403969690E0,1.954768784E-2,-1.343903504E-2,-9.162978269E-3
3.405542574E0,1.771509275E-2,-1.710422710E-2,-7.941247895E-3
3.408306930E0,2.076941915E-2,-1.771509275E-2,-7.330383174E-3
3.409612267E0,2.321287990E-2,-1.710422710E-2,-7.941247895E-3
3.412424892E0,2.260201424E-2,-1.832595654E-2,-7.330383174E-3
3.413872613E0,2.138028294E-2,-1.954768784E-2,-1.221730467E-2
3.416526969E0,2.382374369E-2,-1.954768784E-2,-1.221730467E-2
3.418000074E0,2.321287990E-2,-2.015855350E-2,-9.162978269E-3
3.420628353E0,2.321287990E-2,-2.443460934E-2,-1.038470957E-2
3.421949613E0,2.382374369E-2,-2.260201424E-2,-1.282817032E-2
3.424730315E0,2.504547499E-2,-2.260201424E-2,-9.162978269E-3
3.426001382E0,2.565634064E-2,-2.504547499E-2,-1.343903504E-2
3.428870123E0,2.626720630E-2,-2.443460934E-2,-1.160643995E-2
3.430224690E0,2.809980139E-2,-2.443460934E-2,-1.221730467E-2
3.432958661E0,2.809980139E-2,-2.504547499E-2,-1.466076635E-2
3.434333805E0,2.626720630E-2,-2.687807009E-2,-1.343903504E-2
3.437060738E0,2.687807009E-2,-2.565634064E-2,-1.404990070E-2
3.438750613E0,2.748893574E-2,-2.565634064E-2,-1.404990070E-2
3.441162892E0,2.871066704E-2,-2.626720630E-2,-1.404990070E-2
3.442762305E0,2.748893574E-2,-2.871066704E-2,-1.099557430E-2
3.445264469E0,2.932153270E-2,-2.993239649E-2,-1.282817032E-2
3.447037382E0,2.871066704E-2,-2.809980139E-2,-1.466076635E-2
3.449366430E0,2.748893574E-2,-2.871066704E-2,-1.527163107E-2
3.450841382E0,2.993239649E-2,-3.054326214E-2,-1.832595654E-2
3.453480853E0,2.993239649E-2,-2.871066704E-2,-1.771509275E-2
3.454788613E0,2.993239649E-2,-3.176499158E-2,-1.710422710E-2
3.457358651E0,3.176499158E-2,-3.115412779E-2,-1.832595654E-2
3.458949382E0,2.993239649E-2,-3.054326214E-2,-1.771509275E-2
3.461451036E0,3.543018550E-2,-2.993239649E-2,-1.527163107E-2
3.463030613E0,3.604105115E-2,-3.176499158E-2,-1.954768784E-2
3.465490459E0,3.543018550E-2,-3.054326214E-2,-1.832595654E-2
3.467107190E0,3.604105115E-2,-3.115412779E-2,-1.466076635E-2
3.469923853E0,3.726277873E-2,-2.932153270E-2,-1.710422710E-2
3.471247536E0,3.909537569E-2,-3.115412779E-2,-1.832595654E-2
3.473966574E0,4.031710699E-2,-2.871066704E-2,-1.588249579E-2
3.475310844E0,3.848451003E-2,-2.748893574E-2,-2.015855350E-2
3.477876459E0,4.153883830E-2,-2.809980139E-2,-1.893682219E-2
3.479520536E0,3.909537569E-2,-2.626720630E-2,-1.588249579E-2
3.481988074E0,4.214970022E-2,-2.443460934E-2,-2.076941915E-2
3.483531882E0,4.214970022E-2,-2.443460934E-2,-1.893682219E-2
3.486017920E0,4.214970022E-2,-2.138028294E-2,-2.076941915E-2
3.487697459E0,4.092797264E-2,-2.138028294E-2,-1.771509275E-2
3.490400430E0,4.337143153E-2,-2.076941915E-2,-1.832595654E-2
3.491755305E0,4.459316283E-2,-1.893682219E-2,-1.832595654E-2
3.494513776E0,4.459316283E-2,-1.649336144E-2,-2.138028294E-2
3.495825574E0,4.520402849E-2,-1.404990070E-2,-2.199114859E-2
3.498615276E0,4.520402849E-2,-1.221730467E-2,-2.321287990E-2
3.499987497E0,4.520402849E-2,-1.038470957E-2,-2.076941915E-2
3.502716430E0,4.459316283E-2,-9.162978269E-3,-1.954768784E-2
3.504149536E0,4.703662544E-2,-5.497787148E-3,-2.321287990E-2
3.506817584E0,4.764748737E-2,-4.276056774E-3,-2.504547499E-2
3.508196728E0,5.009094998E-2,-6.108652451E-4,-2.321287990E-2
3.510958199E0,5.131268129E-2,6.108652451E-4,-2.443460934E-2
3.512373959E0,5.009094998E-2,4.276056774E-3,-2.809980139E-2
3.515046430E0,5.375614017E-2,6.108652335E-3,-2.687807009E-2
3.516467190E0,5.009094998E-2,7.330383174E-3,-2.504547499E-2
3.519147391E0,5.436700583E-2,9.773843922E-3,-2.748893574E-2
3.521089920E0,5.803219974E-2,1.038470957E-2,-2.687807009E-2
3.523251314E0,5.864306539E-2,1.221730467E-2,-2.565634064E-2
3.524603459E0,6.047565863E-2,1.221730467E-2,-2.748893574E-2
3.527352776E0,6.108652428E-2,1.404990070E-2,-2.809980139E-2
3.529092344E0,6.536258012E-2,1.527163107E-2,-2.321287990E-2
3.531470507E0,6.536258012E-2,1.343903504E-2,-2.565634064E-2
3.532874882E0,6.963863969E-2,1.404990070E-2,-2.626720630E-2
3.535585391E0,7.208210230E-2,1.221730467E-2,-2.626720630E-2
3.536860920E0,7.024950534E-2,1.099557430E-2,-2.321287990E-2
3.539476074E0,7.391469181E-2,1.038470957E-2,-2.443460934E-2
3.541287190E0,7.574728876E-2,8.552113548E-3,-2.382374369E-2
3.543573497E0,7.819075137E-2,1.038470957E-2,-2.565634064E-2
3.545080574E0,8.002334833E-2,7.330383174E-3,-2.687807009E-2
3.547596305E0,7.941248268E-2,3.665191587E-3,-2.504547499E-2
3.549418305E0,8.246681094E-2,1.221730490E-3,-2.504547499E-2
3.552030737E0,8.368854225E-2,-1.221730490E-3,-2.626720630E-2
3.553899651E0,8.429940045E-2,-3.665191587E-3,-2.382374369E-2
3.556063305E0,8.674286306E-2,-5.497787148E-3,-2.565634064E-2
3.557451844E0,8.674286306E-2,-8.552113548E-3,-2.626720630E-2
3.560154382E0,8.674286306E-2,-9.162978269E-3,-2.321287990E-2
3.561573536E0,8.613199741E-2,-1.160643995E-2,-2.871066704E-2
3.564092382E0,8.796459436E-2,-1.221730467E-2,-3.359758854E-2
3.565674074E0,8.429940045E-2,-1.343903504E-2,-2.626720630E-2
3.568169305E0,8.552113175E-2,-1.404990070E-2,-3.054326214E-2
3.569792536E0,8.552113175E-2,-1.588249579E-2,-2.993239649E-2
3.572513199E0,8.613199741E-2,-1.527163107E-2,-2.626720630E-2
3.573892767E0,8.613199741E-2,-1.771509275E-2,-2.993239649E-2
3.576628007E0,8.552113175E-2,-1.527163107E-2,-2.687807009E-2
3.577951267E0,8.552113175E-2,-1.893682219E-2,-2.626720630E-2
3.580729814E0,8.368854225E-2,-1.771509275E-2,-2.809980139E-2
3.582075228E0,8.368854225E-2,-1.893682219E-2,-2.565634064E-2
3.584832007E0,8.552113175E-2,-1.893682219E-2,-2.932153270E-2
3.586064151E0,8.307767659E-2,-1.893682219E-2,-2.871066704E-2
3.588933353E0,7.941248268E-2,-1.832595654E-2,-2.504547499E-2
3.590258420E0,8.185594529E-2,-1.588249579E-2,-2.504547499E-2
3.593073737E0,7.941248268E-2,-1.771509275E-2,-2.809980139E-2
3.594433651E0,8.063421398E-2,-1.588249579E-2,-2.504547499E-2
3.597162391E0,7.880161703E-2,-1.282817032E-2,-2.504547499E-2
3.598513113E0,7.880161703E-2,-1.099557430E-2,-2.809980139E-2
3.601263622E0,7.941248268E-2,-1.099557430E-2,-2.382374369E-2
3.602817843E0,7.513642311E-2,-8.552113548E-3,-2.138028294E-2
3.605364776E0,7.941248268E-2,-9.773843922E-3,-2.687807009E-2
3.607018728E0,7.574728876E-2,-9.162978269E-3,-2.199114859E-2
3.609465776E0,7.880161703E-2,-6.108652335E-3,-2.382374369E-2
3.610839382E0,7.635815442E-2,-7.941247895E-3,-2.260201424E-2
3.613568891E0,7.635815442E-2,-5.497787148E-3,-2.199114859E-2
3.615019228E0,7.757988572E-2,-3.665191587E-3,-2.138028294E-2
3.617682968E0,7.574728876E-2,-5.497787148E-3,-2.260201424E-2
3.619120959E0,7.391469181E-2,-4.276056774E-3,-2.138028294E-2
3.621516074E0,7.635815442E-2,-1.832595794E-3,-2.199114859E-2
3.623184843E0,7.452555746E-2,-1.832595794E-3,-2.138028294E-2
3.625657113E0,7.574728876E-2,-1.832595794E-3,-2.321287990E-2
3.627209343E0,7.635815442E-2,0.000000000E0,-2.138028294E-2
3.629745420E0,7.635815442E-2,6.108652451E-4,-2.076941915E-2
3.631345113E0,7.696902007E-2,-1.221730490E-3,-1.954768784E-2
3.634131199E0,7.757988572E-2,-1.221730490E-3,-1.893682219E-2
3.635482920E0,7.757988572E-2,6.108652451E-4,-2.199114859E-2
3.638207737E0,7.696902007E-2,0.000000000E0,-1.954768784E-2
3.639684074E0,7.757988572E-2,-6.108652451E-4,-1.954768784E-2
3.642220536E0,7.941248268E-2,6.108652451E-4,-2.015855350E-2
3.643716497E0,8.063421398E-2,0.000000000E0,-1.893682219E-2
3.646411852E0,8.002334833E-2,-1.832595794E-3,-1.771509275E-2
3.648123959E0,8.185594529E-2,6.108652451E-4,-2.076941915E-2
3.650242036E0,8.002334833E-2,0.000000000E0,-1.832595654E-2
3.652127536E0,7.941248268E-2,6.108652451E-4,-1.893682219E-2
3.654641160E0,8.246681094E-2,1.832595794E-3,-2.199114859E-2
3.655912113E0,8.185594529E-2,0.000000000E0,-1.710422710E-2
3.658757699E0,8.429940045E-2,1.221730490E-3,-1.893682219E-2
3.660057651E0,8.368854225E-2,6.108652451E-4,-2.076941915E-2
3.662859968E0,8.307767659E-2,1.221730490E-3,-1.832595654E-2
3.664260074E0,8.246681094E-2,1.832595794E-3,-2.076941915E-2
3.666962122E0,8.185594529E-2,6.108652451E-4,-2.199114859E-2
3.668312382E0,8.429940045E-2,6.108652451E-4,-1.710422710E-2
3.671064506E0,8.429940045E-2,0.000000000E0,-1.954768784E-2
3.672450382E0,8.185594529E-2,2.443460980E-3,-2.015855350E-2
3.675205083E0,8.429940045E-2,1.221730490E-3,-2.015855350E-2
3.676624997E0,8.246681094E-2,1.221730490E-3,-1.893682219E-2
3.679293506E0,8.307767659E-2,6.108652451E-4,-1.832595654E-2
3.680582959E0,8.368854225E-2,6.108652451E-4,-1.771509275E-2
3.683396929E0,8.368854225E-2,3.054326167E-3,-1.832595654E-2
3.684847497E0,8.491026610E-2,3.054326167E-3,-2.199114859E-2
3.687498622E0,8.368854225E-2,1.832595794E-3,-2.199114859E-2
3.688843651E0,8.185594529E-2,3.054326167E-3,-1.832595654E-2
3.691600698E0,8.491026610E-2,3.665191587E-3,-2.015855350E-2
3.693014497E0,8.429940045E-2,5.497787148E-3,-1.893682219E-2
3.695702006E0,8.307767659E-2,3.054326167E-3,-2.015855350E-2
3.697016959E0,8.124507964E-2,3.665191587E-3,-2.076941915E-2
3.699817391E0,8.002334833E-2,4.276056774E-3,-1.832595654E-2
3.701105151E0,8.002334833E-2,3.054326167E-3,-1.588249579E-2
3.703700690E0,7.941248268E-2,6.719517522E-3,-1.832595654E-2
3.705382805E0,7.819075137E-2,6.108652335E-3,-1.893682219E-2
3.707813190E0,7.696902007E-2,6.719517522E-3,-1.893682219E-2
3.709306151E0,7.696902007E-2,6.719517522E-3,-1.710422710E-2
3.711815036E0,7.696902007E-2,8.552113548E-3,-1.893682219E-2
3.713543766E0,7.574728876E-2,8.552113548E-3,-2.138028294E-2
3.716264814E0,7.452555746E-2,9.773843922E-3,-1.893682219E-2
3.717540766E0,7.696902007E-2,9.773843922E-3,-2.076941915E-2
3.720340506E0,7.147123665E-2,7.941247895E-3,-1.649336144E-2
3.722030766E0,7.452555746E-2,7.941247895E-3,-1.893682219E-2
3.724398805E0,7.024950534E-2,7.941247895E-3,-1.710422710E-2
3.725879997E0,7.086037099E-2,7.941247895E-3,-1.954768784E-2
3.728343651E0,6.841690838E-2,9.162978269E-3,-1.527163107E-2
3.729923959E0,7.086037099E-2,8.552113548E-3,-1.649336144E-2
3.732375305E0,6.963863969E-2,6.108652335E-3,-1.649336144E-2
3.733982959E0,6.902777404E-2,6.108652335E-3,-1.710422710E-2
3.736748967E0,6.536258012E-2,8.552113548E-3,-1.954768784E-2
3.738336728E0,6.902777404E-2,7.941247895E-3,-1.710422710E-2
3.740863352E0,6.841690838E-2,8.552113548E-3,-1.527163107E-2
3.742517613E0,6.902777404E-2,8.552113548E-3,-1.527163107E-2
3.744964891E0,6.658431143E-2,9.162978269E-3,-1.710422710E-2
3.746351305E0,6.352998316E-2,9.773843922E-3,-1.527163107E-2
3.749066891E0,6.780604273E-2,1.160643995E-2,-1.710422710E-2
3.750456190E0,6.841690838E-2,1.160643995E-2,-1.527163107E-2
3.753168814E0,6.780604273E-2,1.343903504E-2,-1.588249579E-2
3.754581997E0,6.841690838E-2,1.527163107E-2,-1.588249579E-2
3.757309506E0,6.780604273E-2,1.343903504E-2,-1.282817032E-2
3.758813151E0,6.780604273E-2,1.466076635E-2,-1.221730467E-2
3.761397352E0,6.902777404E-2,1.649336144E-2,-1.527163107E-2
3.762821305E0,6.780604273E-2,1.588249579E-2,-1.282817032E-2
3.765499352E0,7.086037099E-2,1.649336144E-2,-1.221730467E-2
3.766875651E0,6.902777404E-2,1.893682219E-2,-1.282817032E-2
3.769600121E0,7.330382615E-2,1.832595654E-2,-1.466076635E-2
3.771005574E0,7.391469181E-2,2.015855350E-2,-1.404990070E-2
3.773702429E0,7.147123665E-2,2.015855350E-2,-1.282817032E-2
3.775029382E0,7.208210230E-2,2.015855350E-2,-1.282817032E-2
3.777804352E0,7.208210230E-2,1.954768784E-2,-1.038470957E-2
3.779219113E0,7.330382615E-2,2.015855350E-2,-1.099557430E-2
3.781918621E0,7.513642311E-2,2.138028294E-2,-1.466076635E-2
3.783239843E0,7.391469181E-2,2.138028294E-2,-1.343903504E-2
3.785752459E0,7.269296050E-2,2.199114859E-2,-1.466076635E-2
3.787423420E0,7.269296050E-2,2.199114859E-2,-1.343903504E-2
3.789914728E0,7.330382615E-2,2.321287990E-2,-1.588249579E-2
3.791579228E0,6.963863969E-2,2.076941915E-2,-1.221730467E-2
3.793956497E0,7.208210230E-2,2.199114859E-2,-1.221730467E-2
3.795693074E0,6.841690838E-2,2.199114859E-2,-1.221730467E-2
3.798364775E0,7.024950534E-2,2.321287990E-2,-1.466076635E-2
3.799625882E0,6.963863969E-2,2.382374369E-2,-1.466076635E-2
3.802368689E0,6.963863969E-2,2.260201424E-2,-1.282817032E-2
3.803760228E0,6.780604273E-2,2.260201424E-2,-1.588249579E-2
3.806543621E0,6.780604273E-2,2.138028294E-2,-1.343903504E-2
3.807977959E0,6.658431143E-2,2.382374369E-2,-1.221730467E-2
3.810646275E0,6.352998316E-2,2.199114859E-2,-1.343903504E-2
3.812398459E0,6.230825558E-2,2.260201424E-2,-1.282817032E-2
3.814542305E0,6.352998316E-2,2.321287990E-2,-1.282817032E-2
3.816158613E0,6.291911751E-2,2.260201424E-2,-1.466076635E-2
3.818853390E0,6.352998316E-2,2.199114859E-2,-1.466076635E-2
3.820158305E0,6.230825558E-2,2.260201424E-2,-1.404990070E-2
3.822969506E0,6.169738993E-2,2.199114859E-2,-1.466076635E-2
3.824411728E0,5.986479297E-2,2.260201424E-2,-1.099557430E-2
3.827072852E0,5.986479297E-2,2.138028294E-2,-1.221730467E-2
3.828525228E0,5.864306539E-2,2.076941915E-2,-1.038470957E-2
3.831175698E0,5.864306539E-2,1.893682219E-2,-9.773843922E-3
3.832667266E0,5.925392732E-2,1.832595654E-2,-1.343903504E-2
3.835278929E0,6.047565863E-2,1.710422710E-2,-1.038470957E-2
3.837061497E0,6.047565863E-2,1.954768784E-2,-1.160643995E-2
3.839419582E0,5.986479297E-2,1.649336144E-2,-1.221730467E-2
3.840803074E0,5.681046844E-2,1.527163107E-2,-9.773843922E-3
3.843507044E0,5.619960278E-2,1.343903504E-2,-9.773843922E-3
3.844747189E0,5.436700583E-2,1.343903504E-2,-7.330383174E-3
3.847610582E0,5.864306539E-2,1.404990070E-2,-7.330383174E-3
3.849065420E0,5.742133409E-2,1.649336144E-2,-1.038470957E-2
3.851712967E0,5.803219974E-2,1.343903504E-2,-6.719517522E-3
3.853191805E0,5.742133409E-2,1.282817032E-2,-8.552113548E-3
3.855816275E0,5.803219974E-2,1.404990070E-2,-9.162978269E-3
3.857115497E0,5.864306539E-2,1.527163107E-2,-7.941247895E-3
3.859918236E0,5.742133409E-2,1.282817032E-2,-7.330383174E-3
3.861217689E0,5.742133409E-2,1.221730467E-2,-7.941247895E-3
3.864029074E0,5.864306539E-2,1.282817032E-2,-7.330383174E-3
3.865426266E0,5.986479297E-2,1.343903504E-2,-7.941247895E-3
3.868136044E0,5.864306539E-2,1.466076635E-2,-3.665191587E-3
3.869503805E0,5.864306539E-2,1.527163107E-2,-6.719517522E-3
3.872097113E0,6.047565863E-2,1.466076635E-2,-4.276056774E-3
3.873698497E0,5.864306539E-2,1.588249579E-2,-4.886921961E-3
3.876125189E0,5.681046844E-2,1.649336144E-2,6.108652451E-4
3.877621536E0,5.742133409E-2,1.771509275E-2,-3.054326167E-3
3.880480698E0,5.986479297E-2,1.771509275E-2,-7.330383174E-3
3.881798497E0,5.681046844E-2,1.893682219E-2,-1.221730490E-3
3.884508728E0,5.803219974E-2,1.771509275E-2,-4.276056774E-3
3.885949843E0,5.681046844E-2,1.893682219E-2,-4.276056774E-3
3.888658621E0,5.681046844E-2,1.832595654E-2,-3.054326167E-3
3.890095459E0,5.925392732E-2,2.199114859E-2,-3.054326167E-3
3.892760621E0,5.864306539E-2,2.138028294E-2,-1.832595794E-3
3.894138920E0,5.681046844E-2,2.260201424E-2,-6.108652335E-3
3.896888582E0,5.558873713E-2,2.199114859E-2,-2.443460980E-3
3.898189382E0,5.558873713E-2,2.138028294E-2,-3.665191587E-3
3.900992582E0,5.619960278E-2,2.382374369E-2,-4.276056774E-3
3.902330920E0,5.375614017E-2,2.382374369E-2,-1.832595794E-3
3.905110659E0,5.619960278E-2,2.199114859E-2,-2.443460980E-3
3.906386459E0,5.497787148E-2,2.321287990E-2,-2.443460980E-3
3.909212928E0,5.436700583E-2,2.321287990E-2,-3.054326167E-3
3.910542497E0,5.314527452E-2,2.199114859E-2,-4.276056774E-3
3.913315198E0,5.192354694E-2,2.138028294E-2,-1.221730490E-3
3.914696574E0,5.314527452E-2,2.076941915E-2,-1.221730490E-3
3.917417082E0,5.436700583E-2,2.260201424E-2,-4.276056774E-3
3.919181805E0,5.558873713E-2,2.015855350E-2,-4.886921961E-3
3.921558890E0,5.436700583E-2,1.954768784E-2,-4.886921961E-3
3.923166420E0,5.436700583E-2,2.015855350E-2,-4.276056774E-3
3.925647544E0,5.253441259E-2,1.954768784E-2,-3.054326167E-3
3.926943689E0,5.131268129E-2,1.893682219E-2,-1.832595794E-3
3.929749659E0,5.192354694E-2,2.015855350E-2,-5.497787148E-3
3.931129112E0,5.436700583E-2,2.138028294E-2,-3.665191587E-3
3.933852198E0,5.314527452E-2,2.015855350E-2,-3.054326167E-3
3.935406612E0,5.375614017E-2,2.076941915E-2,-6.108652451E-4
3.937954390E0,5.192354694E-2,2.138028294E-2,0.000000000E0
3.939695805E0,5.314527452E-2,2.260201424E-2,-4.276056774E-3
3.942071659E0,5.192354694E-2,2.015855350E-2,1.832595794E-3
3.943362536E0,5.192354694E-2,2.015855350E-2,-6.108652451E-4
3.946186505E0,5.192354694E-2,2.015855350E-2,-1.832595794E-3
3.947472459E0,5.192354694E-2,2.138028294E-2,6.108652451E-4
3.950004843E0,5.009094998E-2,2.015855350E-2,1.221730490E-3
3.951682497E0,5.070181563E-2,2.076941915E-2,1.221730490E-3
3.954362612E0,5.009094998E-2,2.076941915E-2,0.000000000E0
3.955699651E0,4.886921868E-2,2.076941915E-2,6.108652451E-4
3.958186382E0,5.009094998E-2,2.076941915E-2,1.832595794E-3
3.959893574E0,4.825835302E-2,1.893682219E-2,1.221730490E-3
3.962631659E0,4.886921868E-2,1.954768784E-2,2.443460980E-3
3.963942728E0,5.009094998E-2,1.893682219E-2,5.497787148E-3
3.966708005E0,4.764748737E-2,1.649336144E-2,2.443460980E-3
3.968742120E0,4.886921868E-2,1.832595654E-2,1.221730490E-3
3.970810428E0,4.581489414E-2,1.710422710E-2,4.886921961E-3
3.972544189E0,4.642575979E-2,1.832595654E-2,4.276056774E-3
3.974853959E0,4.764748737E-2,1.832595654E-2,3.054326167E-3
3.976212266E0,4.642575979E-2,1.832595654E-2,4.276056774E-3
3.978859805E0,4.642575979E-2,1.893682219E-2,3.665191587E-3
3.980320728E0,4.337143153E-2,1.710422710E-2,5.497787148E-3
3.983118351E0,4.398229718E-2,1.771509275E-2,4.886921961E-3
3.984413459E0,4.642575979E-2,1.710422710E-2,5.497787148E-3
3.987233236E0,4.337143153E-2,1.771509275E-2,4.886921961E-3
3.988764728E0,4.214970022E-2,2.076941915E-2,6.108652335E-3
3.991335736E0,4.153883830E-2,1.771509275E-2,4.276056774E-3
3.992715151E0,4.092797264E-2,1.954768784E-2,3.054326167E-3
3.995437928E0,4.153883830E-2,1.893682219E-2,4.886921961E-3
3.996790805E0,4.153883830E-2,1.954768784E-2,1.832595794E-3
3.999539620E0,3.970624134E-2,2.260201424E-2,3.665191587E-3
4.000927843E0,3.970624134E-2,2.015855350E-2,4.886921961E-3
4.003680428E0,3.909537569E-2,2.138028294E-2,2.443460980E-3
4.005650343E0,3.909537569E-2,2.138028294E-2,3.054326167E-3
4.007768197E0,3.848451003E-2,2.138028294E-2,3.665191587E-3
4.009037959E0,3.787364438E-2,2.138028294E-2,3.665191587E-3
4.011870543E0,3.787364438E-2,2.076941915E-2,3.665191587E-3
4.013327305E0,3.604105115E-2,2.138028294E-2,4.276056774E-3
4.015972928E0,3.787364438E-2,2.260201424E-2,1.832595794E-3
4.017359574E0,3.665191308E-2,2.321287990E-2,1.832595794E-3
4.020074659E0,3.359758854E-2,2.199114859E-2,2.443460980E-3
4.021439920E0,3.481931984E-2,2.138028294E-2,2.443460980E-3
4.024175966E0,3.543018550E-2,2.015855350E-2,5.497787148E-3
4.025458882E0,3.726277873E-2,1.954768784E-2,4.276056774E-3
4.028291120E0,3.420845419E-2,1.893682219E-2,4.886921961E-3
4.029619420E0,3.481931984E-2,2.015855350E-2,2.443460980E-3
4.032392389E0,3.420845419E-2,2.015855350E-2,3.665191587E-3
4.033741074E0,3.298672289E-2,1.893682219E-2,6.719517522E-3
4.036494159E0,3.481931984E-2,1.832595654E-2,3.054326167E-3
4.038040882E0,3.237585723E-2,1.710422710E-2,6.719517522E-3
4.040550997E0,3.237585723E-2,1.527163107E-2,7.330383174E-3
4.041992728E0,3.237585723E-2,1.404990070E-2,3.665191587E-3
4.044737236E0,3.054326214E-2,1.404990070E-2,4.886921961E-3
4.046055535E0,3.176499158E-2,1.527163107E-2,5.497787148E-3
4.048679266E0,3.054326214E-2,1.588249579E-2,7.330383174E-3
4.050196266E0,3.298672289E-2,1.466076635E-2,7.941247895E-3
4.052799535E0,2.809980139E-2,1.221730467E-2,9.162978269E-3
4.054331035E0,2.932153270E-2,1.404990070E-2,4.886921961E-3
