"Time (s)","Acceleration x (m/s^2)","Acceleration y (m/s^2)","Acceleration z (m/s^2)"
8.374036000E-3,1.029027843E1,-5.530605912E-1,-5.219359994E-1
1.047922800E-2,1.029985619E1,-6.248866320E-1,-3.136404157E-1
1.251492100E-2,1.027112484E1,-7.350199223E-1,-5.506663769E-2
1.458595900E-2,1.024957752E1,-7.924807668E-1,8.379705995E-2
1.662188200E-2,1.017535686E1,-8.810662031E-1,2.274491638E-1
1.862369000E-2,1.011789608E1,-9.720458984E-1,3.327940404E-1
2.062430500E-2,1.009156036E1,-1.017535686E0,3.615244627E-1
2.269353600E-2,1.003649330E1,-1.103726983E0,3.711012602E-1
2.472899700E-2,1.003409958E1,-1.206677675E0,3.639186621E-1
2.679865100E-2,1.003888798E1,-1.259350061E0,3.423708379E-1
2.883392100E-2,1.004607010E1,-1.347935557E0,2.968810201E-1
3.088661300E-2,1.005325317E1,-1.383848548E0,2.082955539E-1
3.292249700E-2,1.007719517E1,-1.405396342E0,1.484405100E-1
3.499226700E-2,1.013465595E1,-1.424550056E0,-3.351882473E-2
3.702776700E-2,1.016578007E1,-1.441309452E0,-2.226607651E-1
3.902872800E-2,1.014662647E1,-1.460463047E0,-3.088520169E-1
4.102961300E-2,1.008437729E1,-1.472434044E0,-3.902548850E-1
4.309957400E-2,9.962273598E0,-1.489193439E0,-3.926490843E-1
4.513503600E-2,9.902418137E0,-1.465251446E0,-3.902548850E-1
4.720492000E-2,9.785101891E0,-1.441309452E0,-4.022258818E-1
4.924034400E-2,9.658209801E0,-1.405396342E0,-4.333505034E-1
5.126884400E-2,9.524134636E0,-1.386242747E0,-4.309563041E-1
5.326922800E-2,9.481039047E0,-1.359906554E0,-3.806780577E-1
5.533945900E-2,9.394847870E0,-1.323993564E0,-3.591302633E-1
5.737480500E-2,9.279925346E0,-1.304839969E0,-3.950432837E-1
5.937757400E-2,9.224859238E0,-1.268926859E0,-4.046200812E-1
6.137826700E-2,9.160215378E0,-1.244984865E0,-4.405331016E-1
6.344776700E-2,9.112331390E0,-1.225831270E0,-4.788403511E-1
6.548319000E-2,9.129091263E0,-1.213860273E0,-4.836287498E-1
6.755322800E-2,9.141061783E0,-1.204283476E0,-4.477157295E-1
6.958872800E-2,9.217676163E0,-1.199495077E0,-4.094084799E-1
7.159284300E-2,9.267954826E0,-1.197100878E0,-3.854664862E-1
7.359315100E-2,9.339780807E0,-1.180341482E0,-3.232172430E-1
7.566269000E-2,9.449913979E0,-1.189918280E0,-2.346317619E-1
7.769784300E-2,9.495404243E0,-1.185129881E0,-1.891419291E-1
7.969869000E-2,9.581595421E0,-1.175553083E0,-9.816227108E-2
8.169853600E-2,9.651026726E0,-1.144428372E0,-1.915361360E-2
8.376799700E-2,9.679757118E0,-1.122880578E0,1.915361360E-2
8.580338200E-2,9.734824181E0,-1.101332784E0,9.337386489E-2
8.787338200E-2,9.730035782E0,-1.067813993E0,1.819593310E-1
8.990895900E-2,9.742006302E0,-1.048660398E0,2.178723514E-1
9.193415100E-2,9.758766174E0,-1.005564690E0,2.513911724E-1
9.393449700E-2,9.782708168E0,-9.457096457E-1,2.561795712E-1
9.600395900E-2,9.792284966E0,-9.145850539E-1,2.585737705E-1
9.803980500E-2,9.785101891E0,-8.762778044E-1,2.489969730E-1
1.000433050E-1,9.775525093E0,-8.331822157E-1,2.274491638E-1
1.020436130E-1,9.758766174E0,-8.212111592E-1,2.178723514E-1
1.041126890E-1,9.751583099E0,-7.948749661E-1,2.106897533E-1
1.061482280E-1,9.727641106E0,-7.541735172E-1,2.106897533E-1
1.082179200E-1,9.710882187E0,-7.398083210E-1,2.154781520E-1
1.102534970E-1,9.648633003E0,-6.967126727E-1,2.418143749E-1
1.122572660E-1,9.631873131E0,-6.464344859E-1,2.681505978E-1
1.142574200E-1,9.617507935E0,-6.296750307E-1,2.753331959E-1
1.163276510E-1,9.595960617E0,-6.129156351E-1,2.825157940E-1
1.183629970E-1,9.593565941E0,-5.746083856E-1,2.801215947E-1
1.203970360E-1,9.569623947E0,-5.578489900E-1,2.753331959E-1
1.223979200E-1,9.552865028E0,-5.602431893E-1,2.681505978E-1
1.244678430E-1,9.543288231E0,-5.458779931E-1,2.729389966E-1
1.265036120E-1,9.550470352E0,-5.434837937E-1,2.705447972E-1
1.285733050E-1,9.540893555E0,-5.363011956E-1,2.777273953E-1
1.306091890E-1,9.567230225E0,-5.386953950E-1,2.801215947E-1
1.326099590E-1,9.600749016E0,-5.363011956E-1,2.825157940E-1
1.346106890E-1,9.610325813E0,-5.363011956E-1,2.849099934E-1
1.366810360E-1,9.643844604E0,-5.482721925E-1,3.064578176E-1
1.387169590E-1,9.662998199E0,-5.674257874E-1,3.208230138E-1
1.407194590E-1,9.660603523E0,-5.746083856E-1,3.256114423E-1
1.427197280E-1,9.682151794E0,-5.841852427E-1,3.375824392E-1
1.447898050E-1,9.730035782E0,-5.865794420E-1,3.471592367E-1
1.468253820E-1,9.756371498E0,-6.009446383E-1,3.543418646E-1
1.488955350E-1,9.804255486E0,-6.296750307E-1,3.639186621E-1
1.509318050E-1,9.825803757E0,-6.416460276E-1,3.471592367E-1
1.529374590E-1,9.844957352E0,-6.512228847E-1,3.495534360E-1
1.549381120E-1,9.866505623E0,-6.775590777E-1,3.615244627E-1
1.570085350E-1,9.885659218E0,-6.967126727E-1,3.567360640E-1
1.590440350E-1,9.895236015E0,-7.182605267E-1,3.495534360E-1
1.610476890E-1,9.914389610E0,-7.374141216E-1,3.303998411E-1
1.630486510E-1,9.911994934E0,-7.565677166E-1,3.088520169E-1
1.651187280E-1,9.916783333E0,-7.661445141E-1,3.016694188E-1
1.671549580E-1,9.914389610E0,-7.900865674E-1,2.825157940E-1
1.692252660E-1,9.902418137E0,-7.972691655E-1,2.657563984E-1
1.712608430E-1,9.904812813E0,-7.972691655E-1,2.394201756E-1
1.732622280E-1,9.916783333E0,-8.116343617E-1,1.963245422E-1
1.752629970E-1,9.904812813E0,-8.499416113E-1,1.604115069E-1
1.773328820E-1,9.902418137E0,-8.667010069E-1,1.316810995E-1
1.793686120E-1,9.892841339E0,-8.643068075E-1,8.619125932E-2
1.813720350E-1,9.902418137E0,-8.930372596E-1,4.309562966E-2
1.833727280E-1,9.892841339E0,-8.834604025E-1,1.915361360E-2
1.854423050E-1,9.907206535E0,-9.002198577E-1,-2.154781483E-2
1.874777660E-1,9.914389610E0,-9.289502501E-1,-6.464344263E-2
1.895477280E-1,9.911994934E0,-9.457096457E-1,-9.337386489E-2
1.915835350E-1,9.911994934E0,-9.600749016E-1,-1.412578970E-1
1.935887660E-1,9.907206535E0,-9.696516991E-1,-1.651999205E-1
1.955892660E-1,9.914389610E0,-9.864110947E-1,-1.771709323E-1
1.976589580E-1,9.919178009E0,-1.003170490E0,-1.963245422E-1
1.996946510E-1,9.947908401E0,-1.034295082E0,-2.178723514E-1
2.016943810E-1,9.952696800E0,-1.051054597E0,-2.226607651E-1
2.036945350E-1,9.952696800E0,-1.055842996E0,-2.178723514E-1
2.057636120E-1,9.974244118E0,-1.058237195E0,-2.178723514E-1
2.077982660E-1,9.976638794E0,-1.065419793E0,-2.082955539E-1
2.098673040E-1,9.971850395E0,-1.074996591E0,-1.867477298E-1
2.119026890E-1,9.959878922E0,-1.079784989E0,-1.723825186E-1
2.139023430E-1,9.947908401E0,-1.086967587E0,-1.508347094E-1
2.159027280E-1,9.940725327E0,-1.086967587E0,-1.364694983E-1
2.179723430E-1,9.938331604E0,-1.079784989E0,-1.221042871E-1
2.200079970E-1,9.950302124E0,-1.084573388E0,-9.337386489E-2
2.220106510E-1,9.955090523E0,-1.091755986E0,-7.661445439E-2
2.240122660E-1,9.935936928E0,-1.094150186E0,-5.027823523E-2
2.260809200E-1,9.921571732E0,-1.082179189E0,-9.576806799E-3
2.281167660E-1,9.919178009E0,-1.082179189E0,7.182605099E-3
2.301859970E-1,9.907206535E0,-1.082179189E0,2.633621916E-2
2.322214200E-1,9.876082420E0,-1.067813993E0,5.985504389E-2
2.342258810E-1,9.859322548E0,-1.072602391E0,8.379705995E-2
2.362264970E-1,9.852140427E0,-1.077390790E0,1.173158810E-1
2.382964580E-1,9.837775230E0,-1.084573388E0,1.340752989E-1
2.403314200E-1,9.832986832E0,-1.084573388E0,1.460463107E-1
2.423651500E-1,9.818621635E0,-1.089361787E0,1.556231081E-1
2.443649200E-1,9.799467087E0,-1.106121182E0,1.795651317E-1
2.464341500E-1,9.780313492E0,-1.110909581E0,1.867477298E-1
2.484699970E-1,9.782708168E0,-1.122880578E0,2.011129409E-1
2.505391120E-1,9.765948296E0,-1.139639974E0,2.059013397E-1
2.525743430E-1,9.768342972E0,-1.137245774E0,2.059013397E-1
2.545751120E-1,9.768342972E0,-1.158793569E0,2.154781520E-1
2.565751500E-1,9.765948296E0,-1.180341482E0,2.154781520E-1
2.586449200E-1,9.768342972E0,-1.189918280E0,2.130839527E-1
2.606798430E-1,9.775525093E0,-1.209071875E0,2.035071403E-1
2.626819580E-1,9.787496567E0,-1.209071875E0,1.915361285E-1
2.646820350E-1,9.792284966E0,-1.223437071E0,2.035071403E-1
2.667514200E-1,9.799467087E0,-1.228225470E0,2.011129409E-1
2.687870350E-1,9.818621635E0,-1.235408068E0,1.867477298E-1
2.708563040E-1,9.830592155E0,-1.254561663E0,1.891419291E-1
2.728911500E-1,9.828198433E0,-1.264138460E0,1.915361285E-1
2.748952270E-1,9.821015358E0,-1.271321058E0,1.915361285E-1
2.768959580E-1,9.821015358E0,-1.285686255E0,1.963245422E-1
2.789656500E-1,9.823410034E0,-1.319205165E0,2.082955539E-1
2.810006120E-1,9.830592155E0,-1.326387763E0,2.130839527E-1
2.830013040E-1,9.842563629E0,-1.331176162E0,2.202665508E-1
2.850019200E-1,9.852140427E0,-1.323993564E0,2.466027737E-1
2.870721120E-1,9.868899345E0,-1.338358760E0,2.705447972E-1
2.891081500E-1,9.873687744E0,-1.347935557E0,2.992752194E-1
2.911776890E-1,9.866505623E0,-1.364694953E0,3.184288144E-1
2.932133810E-1,9.847352028E0,-1.371877551E0,3.447650373E-1
2.952281500E-1,9.842563629E0,-1.381454349E0,3.830722570E-1
2.972282660E-1,9.840168953E0,-1.391031146E0,4.022258818E-1
2.992978810E-1,9.804255486E0,-1.405396342E0,4.333505034E-1
3.013332660E-1,9.777919769E0,-1.422155857E0,4.716577232E-1
3.033362270E-1,9.770736694E0,-1.424550056E0,4.932055473E-1
3.053371890E-1,9.758766174E0,-1.436521053E0,5.339069963E-1
3.074056120E-1,9.732429504E0,-1.450886250E0,5.674257874E-1
3.094405350E-1,9.725247383E0,-1.448492050E0,5.817909837E-1
3.115098430E-1,9.718064308E0,-1.462857246E0,6.033388376E-1
3.135450730E-1,9.715670586E0,-1.465251446E0,6.536170840E-1
3.155486890E-1,9.715670586E0,-1.455674648E0,6.631938815E-1
3.175493040E-1,9.701305389E0,-1.453280449E0,6.919242740E-1
3.196185350E-1,9.698910713E0,-1.467645645E0,7.254431248E-1
3.216540730E-1,9.703699112E0,-1.470039845E0,7.517793179E-1
3.236870730E-1,9.701305389E0,-1.455674648E0,7.996633649E-1
3.256866120E-1,9.701305389E0,-1.438915253E0,8.212111592E-1
3.277561500E-1,9.718064308E0,-1.438915253E0,8.331822157E-1
3.297909190E-1,9.722852707E0,-1.424550056E0,8.475474119E-1
3.318598040E-1,9.725247383E0,-1.410184860E0,8.690952063E-1
3.338946500E-1,9.742006302E0,-1.398213744E0,8.738836050E-1
3.359194190E-1,9.751583099E0,-1.367089152E0,8.810662031E-1
3.379195350E-1,9.763554573E0,-1.364694953E0,8.714894056E-1
3.399888810E-1,9.768342972E0,-1.352723956E0,8.667010069E-1
3.420241500E-1,9.787496567E0,-1.333570361E0,8.595184088E-1
3.440251500E-1,9.787496567E0,-1.328781962E0,8.427590132E-1
3.460254190E-1,9.792284966E0,-1.312022567E0,8.355764151E-1
3.480949580E-1,9.797073364E0,-1.292868972E0,8.140285611E-1
3.501300350E-1,9.813833237E0,-1.242590666E0,7.972691655E-1
3.521991500E-1,9.809044838E0,-1.233013868E0,8.020575643E-1
3.542339190E-1,9.804255486E0,-1.201889277E0,8.020575643E-1
3.562387270E-1,9.830592155E0,-1.182735682E0,7.924807668E-1
3.582383810E-1,9.837775230E0,-1.180341482E0,7.876923680E-1
3.603079960E-1,9.830592155E0,-1.158793569E0,7.829039693E-1
3.623429960E-1,9.825803757E0,-1.144428372E0,7.924807668E-1
3.643429190E-1,9.842563629E0,-1.132457376E0,8.116343617E-1
3.663425350E-1,9.856928825E0,-1.110909581E0,8.236053586E-1
3.684115730E-1,9.861717224E0,-1.077390790E0,8.331822157E-1
3.704464580E-1,9.880870819E0,-1.072602391E0,8.547300100E-1
3.725151500E-1,9.885659218E0,-1.074996591E0,8.738836050E-1
3.745496500E-1,9.888052940E0,-1.058237195E0,8.930372596E-1
3.765815350E-1,9.885659218E0,-1.039083481E0,9.193734527E-1
3.785815350E-1,9.890447617E0,-1.027112484E0,9.337386489E-1
3.806505350E-1,9.916783333E0,-1.012747288E0,9.600749016E-1
3.826852650E-1,9.935936928E0,-9.959878922E-1,9.888052940E-1
3.846871500E-1,9.945513725E0,-9.959878922E-1,1.005564690E0
3.866864960E-1,9.933543205E0,-9.648633003E-1,1.029506683E0
3.887554580E-1,9.962273598E0,-9.528923035E-1,1.048660398E0
3.907901500E-1,9.967061996E0,-9.576807022E-1,1.063025594E0
3.928592270E-1,9.962273598E0,-9.409212470E-1,1.096544385E0
3.948942270E-1,9.952696800E0,-9.265560508E-1,1.108515382E0
3.968989580E-1,9.962273598E0,-9.169792533E-1,1.120486379E0
3.988989960E-1,9.981427193E0,-9.002198577E-1,1.130063176E0
4.009678040E-1,9.981427193E0,-8.906430602E-1,1.149216771E0
4.030024190E-1,9.981427193E0,-8.786720037E-1,1.139639974E0
4.050357270E-1,9.969455719E0,-8.906430602E-1,1.120486379E0
4.070355730E-1,9.955090523E0,-9.169792533E-1,1.115697980E0
4.091050730E-1,9.952696800E0,-9.169792533E-1,1.103726983E0
4.111401110E-1,9.943120003E0,-9.002198577E-1,1.063025594E0
4.132090340E-1,9.931148529E0,-8.882488012E-1,1.043871999E0
4.152444580E-1,9.926360130E0,-8.834604025E-1,1.019929886E0
4.172771880E-1,9.926360130E0,-8.714894056E-1,9.744400978E-1
4.192768040E-1,9.902418137E0,-8.619126081E-1,9.361328483E-1
4.213464580E-1,9.892841339E0,-8.571242094E-1,9.002198577E-1
4.233813040E-1,9.897629738E0,-8.571242094E-1,8.930372596E-1
4.253916110E-1,9.876082420E0,-8.379706144E-1,8.762778044E-1
4.273923420E-1,9.890447617E0,-8.212111592E-1,8.690952063E-1
4.294625730E-1,9.888052940E0,-8.068459630E-1,8.571242094E-1
4.314976880E-1,9.866505623E0,-8.068459630E-1,8.571242094E-1
4.335667270E-1,9.849745750E0,-7.948749661E-1,8.523358107E-1
4.356017270E-1,9.844957352E0,-7.876923680E-1,8.547300100E-1
4.376066110E-1,9.832986832E0,-7.709329724E-1,8.571242094E-1
4.396065730E-1,9.823410034E0,-7.613561153E-1,8.714894056E-1
4.416759960E-1,9.813833237E0,-7.685387731E-1,8.810662031E-1
4.437110730E-1,9.792284966E0,-7.733271718E-1,9.241618514E-1
4.457446110E-1,9.780313492E0,-7.422025204E-1,9.433154464E-1
4.477448040E-1,9.780313492E0,-7.493851185E-1,9.552865028E-1
4.498140730E-1,9.792284966E0,-7.757213712E-1,9.864110947E-1
4.518497270E-1,9.761159897E0,-7.733271718E-1,1.007958889E0
4.539192270E-1,9.765948296E0,-7.781155705E-1,1.010353088E0
4.559548800E-1,9.775525093E0,-7.948749661E-1,1.031900883E0
4.579548800E-1,9.792284966E0,-8.140285611E-1,1.063025594E0
4.599550730E-1,9.801861763E0,-8.236053586E-1,1.074996591E0
4.620246110E-1,9.823410034E0,-8.427590132E-1,1.074996591E0
4.640596500E-1,9.835380554E0,-8.427590132E-1,1.053448796E0
4.660611110E-1,9.840168953E0,-8.523358107E-1,1.041477680E0
4.680615340E-1,9.844957352E0,-8.738836050E-1,1.017535686E0
4.701308030E-1,9.856928825E0,-8.954314590E-1,9.888052940E-1
4.721664960E-1,9.873687744E0,-9.050082564E-1,9.792284966E-1
4.742356110E-1,9.873687744E0,-9.097966552E-1,9.409212470E-1
4.762711110E-1,9.895236015E0,-9.121908545E-1,8.930372596E-1
4.782752270E-1,9.897629738E0,-9.169792533E-1,8.786720037E-1
4.802758420E-1,9.895236015E0,-9.265560508E-1,8.475474119E-1
4.823454190E-1,9.897629738E0,-9.050082564E-1,8.068459630E-1
4.843803800E-1,9.888052940E0,-8.978256583E-1,7.900865674E-1
4.863806110E-1,9.883264542E0,-9.050082564E-1,7.398083210E-1
4.883808800E-1,9.871294022E0,-8.738836050E-1,7.062895298E-1
4.904499960E-1,9.876082420E0,-8.690952063E-1,6.871358752E-1
4.924854960E-1,9.854534149E0,-8.523358107E-1,6.703764796E-1
4.945550340E-1,9.842563629E0,-8.403648138E-1,6.512228847E-1
4.965900730E-1,9.830592155E0,-8.188169599E-1,6.416460276E-1
4.986241500E-1,9.813833237E0,-8.092401624E-1,6.368576288E-1
5.006245730E-1,9.785101891E0,-7.852981687E-1,6.272808313E-1
5.026949190E-1,9.768342972E0,-7.374141216E-1,6.440402865E-1
5.047312260E-1,9.756371498E0,-7.086837292E-1,6.464344859E-1
5.067328800E-1,9.739612579E0,-6.727706790E-1,6.560112834E-1
5.087335340E-1,9.718064308E0,-6.296750307E-1,6.823474765E-1
5.108033800E-1,9.698910713E0,-5.961562395E-1,6.967126727E-1
5.128386110E-1,9.686940193E0,-5.458779931E-1,7.254431248E-1
5.149088030E-1,9.682151794E0,-5.027823448E-1,7.613561153E-1
5.169443800E-1,9.679757118E0,-4.812345505E-1,7.829039693E-1
5.189500340E-1,9.665391922E0,-4.716577232E-1,8.236053586E-1
5.209503800E-1,9.677363396E0,-4.309563041E-1,8.547300100E-1
5.230203800E-1,9.679757118E0,-4.046200812E-1,8.786720037E-1
5.250555720E-1,9.677363396E0,-3.806780577E-1,9.217676520E-1
5.270562650E-1,9.689333916E0,-3.447650373E-1,9.624691010E-1
5.290571110E-1,9.701305389E0,-3.208230138E-1,9.816226959E-1
5.311269190E-1,9.713275909E0,-2.801215947E-1,1.000776291E0
5.331624960E-1,9.727641106E0,-2.513911724E-1,1.029506683E0
5.352323420E-1,9.739612579E0,-2.442085743E-1,1.046266198E0
5.372680340E-1,9.761159897E0,-2.226607651E-1,1.065419793E0
5.392688030E-1,9.756371498E0,-2.035071403E-1,1.074996591E0
5.412689190E-1,9.765948296E0,-1.891419291E-1,1.079784989E0
5.433378030E-1,9.775525093E0,-1.843535304E-1,1.077390790E0
5.453727260E-1,9.797073364E0,-1.747767180E-1,1.091755986E0
5.473739950E-1,9.813833237E0,-1.843535304E-1,1.082179189E0
5.493738030E-1,9.854534149E0,-1.771709323E-1,1.067813993E0
5.514429190E-1,9.878476143E0,-1.819593310E-1,1.063025594E0
5.534781490E-1,9.890447617E0,-1.795651317E-1,1.063025594E0
5.555475340E-1,9.904812813E0,-1.699883193E-1,1.053448796E0
5.575828800E-1,9.926360130E0,-1.795651317E-1,1.039083481E0
5.595878420E-1,9.940725327E0,-1.939303428E-1,1.029506683E0
5.615883420E-1,9.952696800E0,-2.274491638E-1,1.022324085E0
5.636576490E-1,9.971850395E0,-2.705447972E-1,1.015141487E0
5.656927260E-1,9.971850395E0,-2.777273953E-1,1.007958889E0
5.676933420E-1,9.981427193E0,-3.016694188E-1,9.864110947E-1
5.696938030E-1,9.986215591E0,-3.184288144E-1,9.528923035E-1
5.717631880E-1,9.988609314E0,-3.303998411E-1,9.409212470E-1
5.737987260E-1,1.000536919E1,-3.687070608E-1,9.145850539E-1
5.758688420E-1,9.995792389E0,-3.926490843E-1,8.930372596E-1
5.779048420E-1,9.998186111E0,-4.118026793E-1,8.786720037E-1
5.799298800E-1,1.000536919E1,-4.309563041E-1,8.643068075E-1
5.819306110E-1,9.995792389E0,-4.692635238E-1,8.379706144E-1
5.840007650E-1,1.000776291E1,-5.075707436E-1,8.283938169E-1
5.860368800E-1,9.991003990E0,-5.315127969E-1,8.236053586E-1
5.880389180E-1,9.976638794E0,-5.698199868E-1,7.948749661E-1
5.900395720E-1,9.979032516E0,-6.081272364E-1,7.733271718E-1
5.921100340E-1,9.969455719E0,-6.320692301E-1,7.589619160E-1
5.941460720E-1,9.952696800E0,-6.895300746E-1,7.469909191E-1
5.962163800E-1,9.943120003E0,-7.182605267E-1,7.517793179E-1
5.982518800E-1,9.935936928E0,-7.374141216E-1,7.445967197E-1
6.002568410E-1,9.919178009E0,-7.733271718E-1,7.398083210E-1
6.022581880E-1,9.885659218E0,-7.996633649E-1,7.254431248E-1
6.043276110E-1,9.876082420E0,-8.307880163E-1,7.182605267E-1
6.063631880E-1,9.861717224E0,-8.738836050E-1,7.158663273E-1
6.083640720E-1,9.864110947E0,-8.906430602E-1,7.134721279E-1
6.103644570E-1,9.859322548E0,-9.145850539E-1,7.134721279E-1
6.124340720E-1,9.844957352E0,-9.457096457E-1,7.086837292E-1
6.144693800E-1,9.821015358E0,-9.720458984E-1,7.206547260E-1
6.165389570E-1,9.806650162E0,-9.792284966E-1,7.350199223E-1
6.185746490E-1,9.780313492E0,-9.911994934E-1,7.374141216E-1
6.205748030E-1,9.792284966E0,-1.005564690E0,7.493851185E-1
6.225753030E-1,9.797073364E0,-1.007958889E0,7.613561153E-1
6.246448800E-1,9.792284966E0,-1.017535686E0,8.044517636E-1
6.266803800E-1,9.782708168E0,-1.007958889E0,8.236053586E-1
6.286823030E-1,9.782708168E0,-1.000776291E0,8.283938169E-1
6.306824570E-1,9.794678688E0,-1.010353088E0,8.595184088E-1
6.327514570E-1,9.751583099E0,-9.959878922E-1,8.690952063E-1
6.347864570E-1,9.734824181E0,-9.864110947E-1,8.858546019E-1
6.368557260E-1,9.730035782E0,-9.816226959E-1,9.074024558E-1
6.388904950E-1,9.708487511E0,-9.552865028E-1,9.241618514E-1
6.408945720E-1,9.701305389E0,-9.433154464E-1,9.289502501E-1
6.428943030E-1,9.689333916E0,-9.289502501E-1,9.409212470E-1
6.449636490E-1,9.679757118E0,-9.026140571E-1,9.481038451E-1
6.469987640E-1,9.674968719E0,-8.978256583E-1,9.576807022E-1
6.489991490E-1,9.662998199E0,-8.762778044E-1,9.648633003E-1
6.509991870E-1,9.651026726E0,-8.355764151E-1,9.840168953E-1
6.530686100E-1,9.629479408E0,-8.259995580E-1,9.888052940E-1
6.551032640E-1,9.619902611E0,-8.307880163E-1,1.000776291E0
6.571728800E-1,9.619902611E0,-8.068459630E-1,1.007958889E0
6.592075720E-1,9.605537415E0,-7.948749661E-1,1.027112484E0
6.612081870E-1,9.600749016E0,-7.900865674E-1,1.029506683E0
6.632069570E-1,9.588777542E0,-7.733271718E-1,1.027112484E0
6.652751100E-1,9.605537415E0,-7.685387731E-1,1.034295082E0
6.673096490E-1,9.605537415E0,-7.541735172E-1,1.046266198E0
6.693118030E-1,9.600749016E0,-7.422025204E-1,1.067813993E0
6.713111870E-1,9.583989143E0,-7.541735172E-1,1.084573388E0
6.733803410E-1,9.591172218E0,-7.469909191E-1,1.091755986E0
6.754158030E-1,9.605537415E0,-7.398083210E-1,1.113303781E0
6.774843030E-1,9.612719536E0,-7.302315235E-1,1.113303781E0
6.795189950E-1,9.607931137E0,-7.302315235E-1,1.115697980E0
6.815228800E-1,9.610325813E0,-7.254431248E-1,1.110909581E0
6.835229180E-1,9.624691010E0,-7.254431248E-1,1.103726983E0
6.855919950E-1,9.643844604E0,-7.374141216E-1,1.089361787E0
6.876270330E-1,9.665391922E0,-7.350199223E-1,1.074996591E0
6.896266100E-1,9.682151794E0,-7.422025204E-1,1.067813993E0
6.916265330E-1,9.684545517E0,-7.326257229E-1,1.067813993E0
6.936956490E-1,9.684545517E0,-7.278373241E-1,1.072602391E0
6.957306490E-1,9.672574997E0,-7.278373241E-1,1.058237195E0
6.978001870E-1,9.679757118E0,-7.278373241E-1,1.060631394E0
6.998351490E-1,9.679757118E0,-7.182605267E-1,1.070208192E0
7.018508410E-1,9.674968719E0,-7.326257229E-1,1.070208192E0
7.038513030E-1,9.679757118E0,-7.278373241E-1,1.067813993E0
7.059210330E-1,9.674968719E0,-7.086837292E-1,1.063025594E0
7.079559180E-1,9.679757118E0,-7.062895298E-1,1.058237195E0
7.099574180E-1,9.672574997E0,-7.086837292E-1,1.051054597E0
7.119573790E-1,9.674968719E0,-7.015010715E-1,1.055842996E0
7.140266100E-1,9.660603523E0,-7.110779285E-1,1.065419793E0
7.160612260E-1,9.651026726E0,-6.991068721E-1,1.072602391E0
7.181301870E-1,9.636661530E0,-6.967126727E-1,1.070208192E0
7.201646490E-1,9.615114212E0,-7.110779285E-1,1.070208192E0
7.221678790E-1,9.598354340E0,-7.254431248E-1,1.072602391E0
7.241674180E-1,9.576807022E0,-7.326257229E-1,1.084573388E0
7.262366870E-1,9.560047150E0,-7.254431248E-1,1.094150186E0
7.282712640E-1,9.562441826E0,-7.182605267E-1,1.103726983E0
7.303045330E-1,9.550470352E0,-7.230489254E-1,1.122880578E0
7.323046490E-1,9.543288231E0,-7.086837292E-1,1.137245774E0
7.343739560E-1,9.562441826E0,-6.943184733E-1,1.151610970E0
7.364091100E-1,9.572018623E0,-6.847416759E-1,1.185129881E0
7.384791100E-1,9.591172218E0,-6.823474765E-1,1.201889277E0
7.405145330E-1,9.569623947E0,-6.655880809E-1,1.223437071E0
7.425151490E-1,9.560047150E0,-6.607996821E-1,1.216254473E0
7.445152260E-1,9.540893555E0,-6.560112834E-1,1.225831270E0
7.465850720E-1,9.538499832E0,-6.440402865E-1,1.237802267E0
7.486201490E-1,9.536105156E0,-6.440402865E-1,1.244984865E0
7.506212250E-1,9.552865028E0,-6.344634295E-1,1.249773264E0
7.526208020E-1,9.536105156E0,-6.153098345E-1,1.264138460E0
7.546897640E-1,9.536105156E0,-5.961562395E-1,1.268926859E0
7.567251870E-1,9.528923035E0,-5.841852427E-1,1.264138460E0
7.587944950E-1,9.536105156E0,-5.698199868E-1,1.271321058E0
7.608300720E-1,9.545681953E0,-5.626373887E-1,1.278503656E0
7.628342640E-1,9.562441826E0,-5.267243981E-1,1.273715258E0
7.648347250E-1,9.560047150E0,-5.171475410E-1,1.271321058E0
7.669047640E-1,9.550470352E0,-5.123591423E-1,1.266532660E0
7.689401100E-1,9.555258751E0,-4.860229492E-1,1.264138460E0
7.709740720E-1,9.562441826E0,-4.692635238E-1,1.259350061E0
7.729742640E-1,9.583989143E0,-4.644751251E-1,1.261744261E0
7.750442640E-1,9.593565941E0,-4.644751251E-1,1.252167463E0
7.770798410E-1,9.603142738E0,-4.261679053E-1,1.244984865E0
7.791494560E-1,9.610325813E0,-4.118026793E-1,1.233013868E0
7.811853410E-1,9.607931137E0,-3.854664862E-1,1.204283476E0
7.831858790E-1,9.651026726E0,-3.543418646E-1,1.180341482E0
7.851865330E-1,9.660603523E0,-3.399766386E-1,1.161187768E0
7.872559950E-1,9.667786598E0,-2.992752194E-1,1.156399369E0
7.892913410E-1,9.715670586E0,-2.992752194E-1,1.149216771E0
7.912930330E-1,9.727641106E0,-2.944868207E-1,1.146822572E0
7.932932640E-1,9.739612579E0,-2.777273953E-1,1.118092179E0
7.953630710E-1,9.765948296E0,-2.609679997E-1,1.098938584E0
7.973986870E-1,9.775525093E0,-2.442085743E-1,1.091755986E0
7.994684180E-1,9.804255486E0,-2.442085743E-1,1.067813993E0
8.015039180E-1,9.797073364E0,-2.226607651E-1,1.063025594E0
8.035082250E-1,9.811438560E0,-2.130839527E-1,1.067813993E0
8.055084180E-1,9.832986832E0,-2.059013397E-1,1.058237195E0
8.075776100E-1,9.871294022E0,-2.178723514E-1,1.048660398E0
8.096126100E-1,9.885659218E0,-2.202665508E-1,1.027112484E0
8.116455710E-1,9.897629738E0,-2.298433632E-1,1.034295082E0
8.136454180E-1,9.892841339E0,-2.537853718E-1,1.031900883E0
8.157145710E-1,9.880870819E0,-2.466027737E-1,1.036689281E0
8.177496100E-1,9.880870819E0,-2.489969730E-1,1.036689281E0
8.198188790E-1,9.888052940E0,-2.705447972E-1,1.067813993E0
8.218541480E-1,9.888052940E0,-2.896983922E-1,1.096544385E0
8.238789560E-1,9.873687744E0,-2.896983922E-1,1.106121182E0
8.258790710E-1,9.878476143E0,-2.992752194E-1,1.122880578E0
8.279489940E-1,9.866505623E0,-3.112462163E-1,1.151610970E0
8.299847250E-1,9.873687744E0,-3.208230138E-1,1.158793569E0
8.319863020E-1,9.878476143E0,-3.256114423E-1,1.189918280E0
8.339866100E-1,9.866505623E0,-3.447650373E-1,1.218648672E0
8.360563020E-1,9.878476143E0,-3.567360640E-1,1.235408068E0
8.380921480E-1,9.880870819E0,-3.567360640E-1,1.252167463E0
8.401607640E-1,9.866505623E0,-3.663128614E-1,1.268926859E0
8.421959170E-1,9.859322548E0,-3.758896589E-1,1.276109457E0
8.441999560E-1,9.852140427E0,-3.854664862E-1,1.290474772E0
8.462003020E-1,9.844957352E0,-3.974374831E-1,1.309628367E0
8.482698400E-1,9.832986832E0,-3.998316824E-1,1.309628367E0
8.503051100E-1,9.799467087E0,-4.094084799E-1,1.326387763E0
8.523063020E-1,9.780313492E0,-4.333505034E-1,1.350329757E0
8.543067640E-1,9.765948296E0,-4.429273009E-1,1.359906554E0
8.563768020E-1,9.763554573E0,-4.501099288E-1,1.374271750E0
8.584126100E-1,9.737217903E0,-4.596867263E-1,1.383848548E0
8.604828020E-1,9.727641106E0,-4.572925270E-1,1.395819545E0
8.625184940E-1,9.686940193E0,-4.716577232E-1,1.426944256E0
8.645519940E-1,9.667786598E0,-4.716577232E-1,1.448492050E0
8.665529170E-1,9.655815125E0,-4.764461517E-1,1.465251446E0
8.686226100E-1,9.636661530E0,-4.908113480E-1,1.479616642E0
8.706583790E-1,9.624691010E0,-5.051765442E-1,1.489193439E0
8.726604560E-1,9.610325813E0,-5.099649429E-1,1.503558636E0
8.746611870E-1,9.617507935E0,-5.147533417E-1,1.522712231E0
8.767314940E-1,9.595960617E0,-5.123591423E-1,1.539471745E0
8.787673790E-1,9.593565941E0,-5.315127969E-1,1.553836942E0
8.808377250E-1,9.603142738E0,-5.506663918E-1,1.556231141E0
8.828739170E-1,9.605537415E0,-5.746083856E-1,1.570596337E0
8.848778020E-1,9.605537415E0,-5.817909837E-1,1.589749932E0
8.868789940E-1,9.603142738E0,-5.937620401E-1,1.592144132E0
8.889488400E-1,9.610325813E0,-6.177040339E-1,1.589749932E0
8.909846860E-1,9.615114212E0,-6.488286853E-1,1.611297727E0
8.930194940E-1,9.619902611E0,-6.655880809E-1,1.611297727E0
8.950204940E-1,9.646238327E0,-7.015010715E-1,1.613691926E0
8.970906860E-1,9.651026726E0,-7.182605267E-1,1.630451322E0
8.991265330E-1,9.670180321E0,-7.398083210E-1,1.616086125E0
9.011966100E-1,9.691728592E0,-7.805097699E-1,1.575384736E0
9.032323790E-1,9.708487511E0,-8.092401624E-1,1.558625340E0
9.052666860E-1,9.718064308E0,-8.188169599E-1,1.546654344E0
9.072673020E-1,9.727641106E0,-8.331822157E-1,1.532289028E0
9.093375710E-1,9.758766174E0,-8.451532125E-1,1.517923832E0
9.113735710E-1,9.775525093E0,-8.667010069E-1,1.510741234E0
9.133846480E-1,9.818621635E0,-8.738836050E-1,1.484405041E0
9.153856860E-1,9.864110947E0,-8.810662031E-1,1.479616642E0
9.174559560E-1,9.883264542E0,-8.858546019E-1,1.477222443E0
9.194917630E-1,9.904812813E0,-9.074024558E-1,1.472434044E0
9.215616480E-1,9.919178009E0,-8.786720037E-1,1.460463047E0
9.235970330E-1,9.928754807E0,-8.643068075E-1,1.455674648E0
9.256019560E-1,9.938331604E0,-8.547300100E-1,1.450886250E0
9.276027250E-1,9.938331604E0,-8.068459630E-1,1.446097851E0
9.296731860E-1,9.933543205E0,-7.876923680E-1,1.448492050E0
9.317081480E-1,9.940725327E0,-7.589619160E-1,1.455674648E0
9.337428020E-1,9.935936928E0,-7.302315235E-1,1.465251446E0
9.357433020E-1,9.928754807E0,-7.110779285E-1,1.472434044E0
9.378129170E-1,9.907206535E0,-6.607996821E-1,1.482010841E0
9.398483400E-1,9.876082420E0,-6.129156351E-1,1.508347034E0
9.419181860E-1,9.859322548E0,-5.746083856E-1,1.546654344E0
9.439534170E-1,9.849745750E0,-5.554547906E-1,1.556231141E0
9.459536090E-1,9.830592155E0,-5.147533417E-1,1.570596337E0
9.479538400E-1,9.825803757E0,-4.860229492E-1,1.584961534E0
9.500233020E-1,9.813833237E0,-4.668693244E-1,1.587355733E0
9.520589550E-1,9.775525093E0,-4.429273009E-1,1.608903527E0
9.540619170E-1,9.744400978E0,-4.165911078E-1,1.616086125E0
9.560628790E-1,9.742006302E0,-4.046200812E-1,1.613691926E0
9.581331860E-1,9.739612579E0,-3.687070608E-1,1.637633920E0
9.601691090E-1,9.730035782E0,-3.447650373E-1,1.644816518E0
9.622388400E-1,9.713275909E0,-3.495534360E-1,1.642422318E0
9.642742250E-1,9.708487511E0,-3.351882398E-1,1.642422318E0
9.662787630E-1,9.708487511E0,-3.208230138E-1,1.635239720E0
9.682794940E-1,9.698910713E0,-3.088520169E-1,1.632845521E0
9.703494550E-1,9.703699112E0,-3.280056417E-1,1.618480325E0
9.723852250E-1,9.701305389E0,-3.208230138E-1,1.592144132E0
9.744194170E-1,9.703699112E0,-3.256114423E-1,1.587355733E0
9.764206480E-1,9.689333916E0,-3.208230138E-1,1.565807939E0
9.784913020E-1,9.713275909E0,-3.112462163E-1,1.553836942E0
9.805278020E-1,9.710882187E0,-3.136404157E-1,1.541865945E0
9.825978400E-1,9.718064308E0,-3.208230138E-1,1.525106430E0
9.846334940E-1,9.720458984E0,-3.184288144E-1,1.515529633E0
9.866670320E-1,9.727641106E0,-3.256114423E-1,1.505952835E0
9.886674940E-1,9.710882187E0,-3.399766386E-1,1.486799240E0
9.907379550E-1,9.708487511E0,-3.375824392E-1,1.482010841E0
9.927736860E-1,9.713275909E0,-3.447650373E-1,1.477222443E0
9.947753010E-1,9.713275909E0,-3.399766386E-1,1.477222443E0
9.967762630E-1,9.715670586E0,-3.447650373E-1,1.479616642E0
9.988462630E-1,9.713275909E0,-3.495534360E-1,1.479616642E0
1.000881378E0,9.725247383E0,-3.519476354E-1,1.472434044E0
1.002951494E0,9.706093788E0,-3.567360640E-1,1.472434044E0
1.004987378E0,9.694122314E0,-3.591302633E-1,1.455674648E0
1.006992263E0,9.706093788E0,-3.591302633E-1,1.446097851E0
1.008992648E0,9.725247383E0,-3.591302633E-1,1.443703651E0
1.011062455E0,9.720458984E0,-3.687070608E-1,1.429338455E0
1.013097917E0,9.725247383E0,-3.615244627E-1,1.426944256E0
1.015098417E0,9.715670586E0,-3.615244627E-1,1.426944256E0
1.017098878E0,9.713275909E0,-3.639186621E-1,1.426944256E0
1.019168494E0,9.710882187E0,-3.758896589E-1,1.419761658E0
1.021204301E0,9.718064308E0,-3.854664862E-1,1.410184860E0
1.023274417E0,9.718064308E0,-4.022258818E-1,1.407790542E0
1.025309301E0,9.720458984E0,-4.070142806E-1,1.400607944E0
1.027342224E0,9.737217903E0,-4.070142806E-1,1.398213744E0
1.029342378E0,9.734824181E0,-4.213795066E-1,1.388636947E0
1.031411532E0,9.739612579E0,-4.261679053E-1,1.383848548E0
1.033446763E0,9.734824181E0,-4.309563041E-1,1.359906554E0
1.035447878E0,9.744400978E0,-4.309563041E-1,1.347935557E0
1.037448186E0,9.753977776E0,-4.333505034E-1,1.347935557E0
1.039517494E0,9.765948296E0,-4.405331016E-1,1.338358760E0
1.041552647E0,9.792284966E0,-4.405331016E-1,1.326387763E0
1.043621878E0,9.801861763E0,-4.596867263E-1,1.321599364E0
1.045657071E0,9.823410034E0,-4.740519226E-1,1.328781962E0
1.047661724E0,9.840168953E0,-4.884171486E-1,1.312022567E0
1.049662417E0,9.844957352E0,-4.788403511E-1,1.309628367E0
1.051731955E0,9.847352028E0,-4.884171486E-1,1.304839969E0
1.053767224E0,9.873687744E0,-4.955997467E-1,1.312022567E0
1.055767378E0,9.871294022E0,-5.075707436E-1,1.319205165E0
1.057767647E0,9.861717224E0,-5.195417404E-1,1.319205165E0
1.059836686E0,9.861717224E0,-5.147533417E-1,1.312022567E0
1.061871186E0,9.866505623E0,-5.219359994E-1,1.314416766E0
1.063940340E0,9.854534149E0,-5.386953950E-1,1.326387763E0
1.065975417E0,9.852140427E0,-5.554547906E-1,1.343147159E0
1.068000686E0,9.847352028E0,-5.650315881E-1,1.347935557E0
1.070000570E0,9.849745750E0,-5.602431893E-1,1.355118155E0
1.072069763E0,9.854534149E0,-5.482721925E-1,1.352723956E0
1.074104801E0,9.844957352E0,-5.626373887E-1,1.357512355E0
1.076106417E0,9.844957352E0,-5.722141862E-1,1.359906554E0
1.078106340E0,9.847352028E0,-5.746083856E-1,1.379060149E0
1.080175340E0,9.849745750E0,-5.793967843E-1,1.386242747E0
1.082210455E0,9.842563629E0,-5.746083856E-1,1.388636947E0
1.084279455E0,9.825803757E0,-5.602431893E-1,1.383848548E0
1.086314493E0,9.799467087E0,-5.482721925E-1,1.376665950E0
1.088318455E0,9.787496567E0,-5.506663918E-1,1.379060149E0
1.090318416E0,9.777919769E0,-5.410895944E-1,1.379060149E0
1.092387801E0,9.768342972E0,-5.267243981E-1,1.357512355E0
1.094423109E0,9.773131371E0,-5.123591423E-1,1.352723956E0
1.096423763E0,9.765948296E0,-4.908113480E-1,1.347935557E0
1.098423993E0,9.765948296E0,-4.908113480E-1,1.347935557E0
1.100493763E0,9.768342972E0,-4.884171486E-1,1.343147159E0
1.102529301E0,9.749189377E0,-4.740519226E-1,1.331176162E0
1.104598916E0,9.742006302E0,-4.572925270E-1,1.323993564E0
1.106634763E0,9.739612579E0,-4.572925270E-1,1.316810966E0
1.108648301E0,9.715670586E0,-4.596867263E-1,1.316810966E0
1.110649070E0,9.725247383E0,-4.572925270E-1,1.326387763E0
1.112718993E0,9.734824181E0,-4.620809257E-1,1.314416766E0
1.114755186E0,9.720458984E0,-4.381389022E-1,1.323993564E0
1.116757570E0,9.713275909E0,-4.237737060E-1,1.328781962E0
1.118758301E0,9.713275909E0,-4.213795066E-1,1.326387763E0
1.120828263E0,9.710882187E0,-4.357447028E-1,1.335964561E0
1.122864609E0,9.708487511E0,-4.548983276E-1,1.347935557E0
1.124934263E0,9.710882187E0,-4.572925270E-1,1.350329757E0
1.126969763E0,9.710882187E0,-4.620809257E-1,1.347935557E0
1.128974839E0,9.701305389E0,-4.692635238E-1,1.347935557E0
1.130975916E0,9.703699112E0,-4.668693244E-1,1.350329757E0
1.133046032E0,9.686940193E0,-4.668693244E-1,1.369483352E0
1.135082070E0,9.694122314E0,-4.812345505E-1,1.376665950E0
1.137083224E0,9.696516991E0,-4.908113480E-1,1.367089152E0
1.139083762E0,9.694122314E0,-5.003881454E-1,1.369483352E0
1.141154109E0,9.706093788E0,-5.195417404E-1,1.381454349E0
1.143189186E0,9.718064308E0,-5.075707436E-1,1.371877551E0
1.145258993E0,9.713275909E0,-5.195417404E-1,1.362300754E0
1.147294686E0,9.734824181E0,-5.291185975E-1,1.379060149E0
1.149295147E0,9.730035782E0,-5.458779931E-1,1.393425345E0
1.151295685E0,9.737217903E0,-5.434837937E-1,1.388636947E0
1.153365416E0,9.751583099E0,-5.626373887E-1,1.383848548E0
1.155400762E0,9.770736694E0,-5.554547906E-1,1.400607944E0
1.157403647E0,9.780313492E0,-5.722141862E-1,1.405396342E0
1.159403801E0,9.789890289E0,-5.770025849E-1,1.407790542E0
1.161473262E0,9.785101891E0,-5.841852427E-1,1.424550056E0
1.163508762E0,9.782708168E0,-5.889736414E-1,1.424550056E0
1.165578032E0,9.799467087E0,-5.961562395E-1,1.414973259E0
1.167612878E0,9.782708168E0,-5.913678408E-1,1.419761658E0
1.169617185E0,9.777919769E0,-5.937620401E-1,1.429338455E0
1.171617762E0,9.768342972E0,-6.129156351E-1,1.434126854E0
1.173687147E0,9.797073364E0,-6.224924326E-1,1.441309452E0
1.175722108E0,9.801861763E0,-6.177040339E-1,1.443703651E0
1.177755762E0,9.775525093E0,-6.177040339E-1,1.448492050E0
1.179755839E0,9.799467087E0,-6.177040339E-1,1.441309452E0
1.181825455E0,9.804255486E0,-6.153098345E-1,1.448492050E0
1.183860570E0,9.777919769E0,-6.105214357E-1,1.453280449E0
1.185930070E0,9.765948296E0,-6.033388376E-1,1.467645645E0
1.187965416E0,9.763554573E0,-5.961562395E-1,1.465251446E0
1.189999224E0,9.780313492E0,-5.913678408E-1,1.477222443E0
1.191999724E0,9.763554573E0,-5.961562395E-1,1.474828243E0
1.194069839E0,9.761159897E0,-5.961562395E-1,1.479616642E0
1.196105455E0,9.773131371E0,-5.913678408E-1,1.491587639E0
1.198108262E0,9.765948296E0,-5.865794420E-1,1.489193439E0
1.200109262E0,9.761159897E0,-5.746083856E-1,1.491587639E0
1.202179647E0,9.753977776E0,-5.674257874E-1,1.493981838E0
1.204215108E0,9.749189377E0,-5.722141862E-1,1.508347034E0
1.206284724E0,9.744400978E0,-5.722141862E-1,1.510741234E0
1.208320378E0,9.730035782E0,-5.674257874E-1,1.522712231E0
1.210324301E0,9.730035782E0,-5.506663918E-1,1.522712231E0
1.212324801E0,9.725247383E0,-5.458779931E-1,1.527500629E0
1.214394762E0,9.727641106E0,-5.434837937E-1,1.529894829E0
1.216430147E0,9.737217903E0,-5.243301988E-1,1.527500629E0
1.218464070E0,9.727641106E0,-5.219359994E-1,1.522712231E0
1.220464839E0,9.730035782E0,-5.243301988E-1,1.529894829E0
1.222534493E0,9.706093788E0,-5.147533417E-1,1.534683347E0
1.224570378E0,9.715670586E0,-5.027823448E-1,1.527500629E0
1.226639878E0,9.732429504E0,-4.955997467E-1,1.520318031E0
1.228675531E0,9.725247383E0,-4.836287498E-1,1.520318031E0
1.230709647E0,9.686940193E0,-4.812345505E-1,1.529894829E0
1.232710147E0,9.682151794E0,-4.860229492E-1,1.527500629E0
1.234780031E0,9.698910713E0,-4.644751251E-1,1.534683347E0
1.236815839E0,9.703699112E0,-4.548983276E-1,1.541865945E0
1.238817993E0,9.703699112E0,-4.644751251E-1,1.541865945E0
1.240818801E0,9.703699112E0,-4.644751251E-1,1.544260144E0
1.242889224E0,9.679757118E0,-4.668693244E-1,1.549048543E0
1.244924801E0,9.667786598E0,-4.548983276E-1,1.556231141E0
1.246995031E0,9.679757118E0,-4.620809257E-1,1.553836942E0
1.249030685E0,9.686940193E0,-4.525041282E-1,1.561019540E0
1.251035877E0,9.686940193E0,-4.453215301E-1,1.561019540E0
1.253036916E0,9.698910713E0,-4.429273009E-1,1.568202138E0
1.255107031E0,9.703699112E0,-4.285621047E-1,1.563413739E0
1.257142800E0,9.701305389E0,-4.333505034E-1,1.568202138E0
1.259143647E0,9.701305389E0,-4.309563041E-1,1.563413739E0
1.261144454E0,9.686940193E0,-4.309563041E-1,1.577778935E0
1.263213954E0,9.689333916E0,-4.309563041E-1,1.575384736E0
1.265249300E0,9.706093788E0,-4.357447028E-1,1.589749932E0
1.267318070E0,9.696516991E0,-4.453215301E-1,1.599326730E0
1.269353185E0,9.679757118E0,-4.333505034E-1,1.606509328E0
1.271353300E0,9.674968719E0,-4.309563041E-1,1.620874524E0
1.273353300E0,9.670180321E0,-4.333505034E-1,1.623268723E0
1.275422723E0,9.662998199E0,-4.309563041E-1,1.630451322E0
1.277457685E0,9.634267807E0,-4.333505034E-1,1.632845521E0
1.279458993E0,9.610325813E0,-4.357447028E-1,1.649604917E0
1.281459070E0,9.615114212E0,-4.213795066E-1,1.656787634E0
1.283528493E0,9.607931137E0,-4.357447028E-1,1.654393315E0
1.285563800E0,9.579200745E0,-4.453215301E-1,1.656787634E0
1.287633031E0,9.586383820E0,-4.357447028E-1,1.659181833E0
1.289668070E0,9.576807022E0,-4.357447028E-1,1.659181833E0
1.291672416E0,9.526528358E0,-4.501099288E-1,1.675941229E0
1.293673070E0,9.507374763E0,-4.501099288E-1,1.671152830E0
1.295742762E0,9.507374763E0,-4.477157295E-1,1.661576033E0
1.297778070E0,9.481039047E0,-4.644751251E-1,1.678335428E0
1.299778454E0,9.476250648E0,-4.572925270E-1,1.673547029E0
1.301778608E0,9.471462250E0,-4.548983276E-1,1.680729628E0
1.303847916E0,9.459490776E0,-4.740519226E-1,1.683123827E0
1.305883454E0,9.437943459E0,-4.860229492E-1,1.683123827E0
1.307953454E0,9.430760384E0,-4.812345505E-1,1.680729628E0
1.309989339E0,9.414001465E0,-4.692635238E-1,1.683123827E0
1.312014223E0,9.421183586E0,-4.740519226E-1,1.673547029E0
1.314015416E0,9.425971985E0,-4.764461517E-1,1.678335428E0
1.316086031E0,9.423578262E0,-4.932055473E-1,1.675941229E0
1.318122377E0,9.418789864E0,-5.003881454E-1,1.675941229E0
1.320123993E0,9.414001465E0,-4.955997467E-1,1.687912226E0
1.322124916E0,9.423578262E0,-4.955997467E-1,1.692700624E0
1.324194723E0,9.423578262E0,-5.051765442E-1,1.675941229E0
1.326230608E0,9.437943459E0,-5.027823448E-1,1.666364431E0
1.328300185E0,9.457097054E0,-4.860229492E-1,1.668758631E0
1.330335531E0,9.476250648E0,-4.908113480E-1,1.654393315E0
1.332340108E0,9.493009567E0,-4.860229492E-1,1.656787634E0
1.334340992E0,9.495404243E0,-4.884171486E-1,1.666364431E0
1.336410377E0,9.516951561E0,-5.003881454E-1,1.663970232E0
1.338445877E0,9.519346237E0,-5.027823448E-1,1.656787634E0
1.340446223E0,9.564835548E0,-5.075707436E-1,1.649604917E0
1.342446800E0,9.579200745E0,-5.123591423E-1,1.642422318E0
1.344516762E0,9.583989143E0,-5.171475410E-1,1.637633920E0
1.346552492E0,9.612719536E0,-4.836287498E-1,1.625662923E0
1.348622146E0,9.674968719E0,-4.716577232E-1,1.620874524E0
1.350657800E0,9.689333916E0,-4.836287498E-1,1.613691926E0
1.352690915E0,9.698910713E0,-4.908113480E-1,1.599326730E0
1.354691723E0,9.730035782E0,-4.812345505E-1,1.582567334E0
1.356761146E0,9.746794701E0,-4.812345505E-1,1.570596337E0
1.358796531E0,9.768342972E0,-4.788403511E-1,1.563413739E0
1.360798839E0,9.787496567E0,-4.692635238E-1,1.541865945E0
1.362799685E0,9.789890289E0,-4.692635238E-1,1.529894829E0
1.364869185E0,9.823410034E0,-4.668693244E-1,1.513135433E0
1.366904454E0,9.840168953E0,-4.692635238E-1,1.496376038E0
1.368973915E0,9.847352028E0,-4.644751251E-1,1.467645645E0
1.371009454E0,9.844957352E0,-4.620809257E-1,1.465251446E0
1.373014415E0,9.861717224E0,-4.453215301E-1,1.460463047E0
1.375014838E0,9.868899345E0,-4.477157295E-1,1.465251446E0
1.377084954E0,9.864110947E0,-4.381389022E-1,1.458068848E0
1.379120146E0,9.861717224E0,-4.237737060E-1,1.446097851E0
1.381120415E0,9.852140427E0,-4.333505034E-1,1.438915253E0
1.383120877E0,9.856928825E0,-4.213795066E-1,1.429338455E0
1.385190108E0,9.847352028E0,-4.165911078E-1,1.407790542E0
1.387224762E0,9.849745750E0,-4.141969085E-1,1.419761658E0
1.389294069E0,9.852140427E0,-3.998316824E-1,1.424550056E0
1.391329031E0,9.837775230E0,-4.022258818E-1,1.419761658E0
1.393361992E0,9.806650162E0,-3.950432837E-1,1.410184860E0
1.395362261E0,9.804255486E0,-3.926490843E-1,1.412579060E0
1.397431300E0,9.782708168E0,-3.950432837E-1,1.417367458E0
1.399466031E0,9.761159897E0,-4.046200812E-1,1.429338455E0
1.401476300E0,9.751583099E0,-4.046200812E-1,1.429338455E0
1.403476069E0,9.749189377E0,-3.998316824E-1,1.438915253E0
1.405545454E0,9.746794701E0,-4.094084799E-1,1.426944256E0
1.407580723E0,9.737217903E0,-4.070142806E-1,1.429338455E0
1.409650646E0,9.720458984E0,-4.118026793E-1,1.429338455E0
1.411686223E0,9.689333916E0,-3.998316824E-1,1.448492050E0
1.413690954E0,9.684545517E0,-3.998316824E-1,1.453280449E0
1.415690454E0,9.689333916E0,-4.165911078E-1,1.467645645E0
1.417760915E0,9.677363396E0,-4.094084799E-1,1.477222443E0
1.419796531E0,9.684545517E0,-4.022258818E-1,1.472434044E0
1.421797838E0,9.691728592E0,-3.974374831E-1,1.460463047E0
1.423798338E0,9.691728592E0,-4.070142806E-1,1.467645645E0
1.425868300E0,9.698910713E0,-3.998316824E-1,1.467645645E0
1.427903877E0,9.686940193E0,-3.902548850E-1,1.458068848E0
1.429973261E0,9.698910713E0,-4.046200812E-1,1.474828243E0
1.432008338E0,9.696516991E0,-3.878606856E-1,1.477222443E0
1.434008607E0,9.696516991E0,-3.854664862E-1,1.470039845E0
1.436009031E0,9.701305389E0,-3.902548850E-1,1.479616642E0
1.438078492E0,9.713275909E0,-3.950432837E-1,1.484405041E0
1.440113377E0,9.722852707E0,-3.926490843E-1,1.482010841E0
1.442115531E0,9.708487511E0,-4.070142806E-1,1.479616642E0
1.444116146E0,9.722852707E0,-3.998316824E-1,1.486799240E0
1.446185915E0,9.749189377E0,-3.830722570E-1,1.489193439E0
1.448221223E0,9.782708168E0,-3.878606856E-1,1.472434044E0
1.450291377E0,9.758766174E0,-3.974374831E-1,1.458068848E0
1.452327146E0,9.761159897E0,-3.902548850E-1,1.455674648E0
1.454332761E0,9.789890289E0,-3.974374831E-1,1.455674648E0
1.456332800E0,9.794678688E0,-4.094084799E-1,1.455674648E0
1.458401992E0,9.799467087E0,-3.998316824E-1,1.450886250E0
1.460437607E0,9.809044838E0,-3.902548850E-1,1.438915253E0
1.462438300E0,9.813833237E0,-3.734954596E-1,1.436521053E0
1.464438338E0,9.828198433E0,-3.830722570E-1,1.434126854E0
1.466507607E0,9.832986832E0,-3.950432837E-1,1.422155857E0
1.468542646E0,9.859322548E0,-3.950432837E-1,1.414973259E0
1.470612069E0,9.866505623E0,-3.878606856E-1,1.410184860E0
1.472647107E0,9.852140427E0,-3.878606856E-1,1.400607944E0
1.474647492E0,9.859322548E0,-3.926490843E-1,1.400607944E0
1.476647646E0,9.866505623E0,-3.902548850E-1,1.403002143E0
1.478717415E0,9.883264542E0,-3.854664862E-1,1.407790542E0
1.480752915E0,9.873687744E0,-3.854664862E-1,1.393425345E0
1.482753569E0,9.871294022E0,-3.854664862E-1,1.386242747E0
1.484753877E0,9.883264542E0,-3.878606856E-1,1.379060149E0
1.486823684E0,9.856928825E0,-3.902548850E-1,1.400607944E0
1.488858761E0,9.837775230E0,-3.998316824E-1,1.400607944E0
1.490928223E0,9.830592155E0,-4.070142806E-1,1.395819545E0
1.492963761E0,9.818621635E0,-3.998316824E-1,1.391031146E0
1.494967415E0,9.816226959E0,-3.974374831E-1,1.388636947E0
1.496968030E0,9.804255486E0,-3.782838583E-1,1.386242747E0
1.499038415E0,9.801861763E0,-3.734954596E-1,1.381454349E0
1.501073915E0,9.785101891E0,-3.758896589E-1,1.383848548E0
1.503074453E0,9.782708168E0,-3.806780577E-1,1.391031146E0
1.505075107E0,9.804255486E0,-3.854664862E-1,1.398213744E0
1.507145223E0,9.804255486E0,-3.878606856E-1,1.398213744E0
1.509180761E0,9.787496567E0,-3.902548850E-1,1.391031146E0
1.511250069E0,9.789890289E0,-3.902548850E-1,1.386242747E0
1.513285646E0,9.789890289E0,-3.758896589E-1,1.381454349E0
1.515302146E0,9.763554573E0,-3.854664862E-1,1.369483352E0
1.517302915E0,9.744400978E0,-3.687070608E-1,1.376665950E0
1.519372799E0,9.758766174E0,-3.663128614E-1,1.379060149E0
1.521408569E0,9.753977776E0,-3.758896589E-1,1.388636947E0
1.523411223E0,9.761159897E0,-3.567360640E-1,1.388636947E0
1.525412107E0,9.756371498E0,-3.519476354E-1,1.383848548E0
1.527481723E0,9.749189377E0,-3.591302633E-1,1.388636947E0
1.529517146E0,9.737217903E0,-3.543418646E-1,1.393425345E0
1.531587184E0,9.734824181E0,-3.567360640E-1,1.400607944E0
1.533622684E0,9.730035782E0,-3.519476354E-1,1.405396342E0
1.535628453E0,9.722852707E0,-3.423708379E-1,1.431732655E0
1.537629838E0,9.725247383E0,-3.471592367E-1,1.431732655E0
1.539699992E0,9.722852707E0,-3.471592367E-1,1.441309452E0
1.541735569E0,9.718064308E0,-3.471592367E-1,1.448492050E0
1.543735953E0,9.730035782E0,-3.447650373E-1,1.453280449E0
1.545736607E0,9.725247383E0,-3.327940404E-1,1.458068848E0
1.547806338E0,9.706093788E0,-3.256114423E-1,1.460463047E0
1.549841876E0,9.720458984E0,-3.399766386E-1,1.470039845E0
1.551911569E0,9.737217903E0,-3.327940404E-1,1.472434044E0
1.553947107E0,9.734824181E0,-3.088520169E-1,1.455674648E0
1.555972376E0,9.730035782E0,-3.208230138E-1,1.453280449E0
1.557972838E0,9.730035782E0,-3.280056417E-1,1.455674648E0
1.560042222E0,9.725247383E0,-3.280056417E-1,1.450886250E0
1.562077684E0,9.720458984E0,-3.351882398E-1,1.436521053E0
1.564079569E0,9.720458984E0,-3.375824392E-1,1.431732655E0
1.566080030E0,9.725247383E0,-3.543418646E-1,1.426944256E0
1.568150030E0,9.710882187E0,-3.591302633E-1,1.414973259E0
1.570185530E0,9.710882187E0,-3.591302633E-1,1.414973259E0
1.572255299E0,9.720458984E0,-3.399766386E-1,1.412579060E0
1.574290953E0,9.739612579E0,-3.519476354E-1,1.412579060E0
1.576295338E0,9.742006302E0,-3.567360640E-1,1.417367458E0
1.578295607E0,9.746794701E0,-3.734954596E-1,1.417367458E0
1.580365338E0,9.753977776E0,-3.830722570E-1,1.407790542E0
1.582400799E0,9.744400978E0,-3.854664862E-1,1.407790542E0
1.584401145E0,9.744400978E0,-3.854664862E-1,1.417367458E0
1.586401145E0,9.730035782E0,-3.998316824E-1,1.419761658E0
1.588470184E0,9.742006302E0,-4.046200812E-1,1.422155857E0
1.590505299E0,9.730035782E0,-4.046200812E-1,1.431732655E0
1.592574376E0,9.732429504E0,-4.261679053E-1,1.458068848E0
1.594609453E0,9.727641106E0,-4.333505034E-1,1.470039845E0
1.596609607E0,9.725247383E0,-4.429273009E-1,1.482010841E0
1.598609722E0,9.730035782E0,-4.572925270E-1,1.489193439E0
1.600679107E0,9.715670586E0,-4.381389022E-1,1.513135433E0
1.602714338E0,9.713275909E0,-4.357447028E-1,1.520318031E0
1.604717338E0,9.713275909E0,-4.453215301E-1,1.539471745E0
1.606718261E0,9.715670586E0,-4.453215301E-1,1.541865945E0
1.608788607E0,9.696516991E0,-4.620809257E-1,1.563413739E0
1.610823876E0,9.694122314E0,-4.692635238E-1,1.561019540E0
1.612893261E0,9.706093788E0,-4.764461517E-1,1.553836942E0
1.614928722E0,9.701305389E0,-4.668693244E-1,1.558625340E0
1.616933145E0,9.686940193E0,-4.716577232E-1,1.568202138E0
1.618933491E0,9.703699112E0,-4.525041282E-1,1.580173135E0
1.621002761E0,9.694122314E0,-4.548983276E-1,1.580173135E0
1.623038338E0,9.689333916E0,-4.501099288E-1,1.577778935E0
1.625072261E0,9.696516991E0,-4.525041282E-1,1.568202138E0
1.627073184E0,9.694122314E0,-4.620809257E-1,1.558625340E0
1.629143068E0,9.689333916E0,-4.501099288E-1,1.572990537E0
1.631178645E0,9.686940193E0,-4.501099288E-1,1.575384736E0
1.633248491E0,9.691728592E0,-4.501099288E-1,1.572990537E0
1.635284184E0,9.696516991E0,-4.381389022E-1,1.565807939E0
1.637285030E0,9.703699112E0,-4.525041282E-1,1.568202138E0
1.639285568E0,9.706093788E0,-4.548983276E-1,1.563413739E0
1.641355453E0,9.696516991E0,-4.381389022E-1,1.565807939E0
1.643390953E0,9.708487511E0,-4.213795066E-1,1.565807939E0
1.645393530E0,9.708487511E0,-4.309563041E-1,1.558625340E0
1.647393799E0,9.701305389E0,-4.501099288E-1,1.553836942E0
1.649463645E0,9.706093788E0,-4.572925270E-1,1.556231141E0
1.651498222E0,9.703699112E0,-4.525041282E-1,1.553836942E0
1.653567414E0,9.703699112E0,-4.501099288E-1,1.551442742E0
1.655602837E0,9.715670586E0,-4.501099288E-1,1.553836942E0
1.657607068E0,9.713275909E0,-4.453215301E-1,1.546654344E0
1.659607068E0,9.706093788E0,-4.477157295E-1,1.541865945E0
1.661676376E0,9.715670586E0,-4.333505034E-1,1.549048543E0
1.663711491E0,9.710882187E0,-4.381389022E-1,1.544260144E0
1.665711914E0,9.713275909E0,-4.237737060E-1,1.527500629E0
1.667712684E0,9.701305389E0,-4.213795066E-1,1.525106430E0
1.669782376E0,9.696516991E0,-4.285621047E-1,1.534683347E0
1.671817799E0,9.703699112E0,-4.237737060E-1,1.529894829E0
1.673887299E0,9.713275909E0,-4.141969085E-1,1.525106430E0
1.675922530E0,9.703699112E0,-4.165911078E-1,1.532289028E0
1.677956030E0,9.691728592E0,-4.165911078E-1,1.532289028E0
1.679956568E0,9.696516991E0,-4.118026793E-1,1.520318031E0
1.682025876E0,9.703699112E0,-4.381389022E-1,1.534683347E0
1.684061376E0,9.698910713E0,-4.357447028E-1,1.539471745E0
1.686063299E0,9.694122314E0,-4.357447028E-1,1.546654344E0
1.688063607E0,9.708487511E0,-4.572925270E-1,1.551442742E0
1.690133299E0,9.710882187E0,-4.548983276E-1,1.556231141E0
1.692168683E0,9.706093788E0,-4.429273009E-1,1.549048543E0
1.694238222E0,9.706093788E0,-4.381389022E-1,1.558625340E0
1.696273683E0,9.706093788E0,-4.429273009E-1,1.568202138E0
1.698277683E0,9.710882187E0,-4.548983276E-1,1.558625340E0
1.700278106E0,9.725247383E0,-4.429273009E-1,1.570596337E0
1.702347645E0,9.720458984E0,-4.525041282E-1,1.565807939E0
1.704382876E0,9.708487511E0,-4.525041282E-1,1.558625340E0
1.706383030E0,9.703699112E0,-4.572925270E-1,1.561019540E0
1.708384068E0,9.701305389E0,-4.740519226E-1,1.561019540E0
1.710453453E0,9.684545517E0,-4.908113480E-1,1.565807939E0
1.712488760E0,9.682151794E0,-4.908113480E-1,1.570596337E0
1.714558799E0,9.684545517E0,-4.908113480E-1,1.577778935E0
1.716594145E0,9.682151794E0,-4.932055473E-1,1.587355733E0
1.718595183E0,9.672574997E0,-4.836287498E-1,1.589749932E0
1.720595414E0,9.667786598E0,-4.812345505E-1,1.589749932E0
1.722664683E0,9.667786598E0,-4.836287498E-1,1.596932530E0
1.724700337E0,9.665391922E0,-5.003881454E-1,1.601720929E0
1.726702068E0,9.660603523E0,-4.979939461E-1,1.601720929E0
1.728702645E0,9.643844604E0,-4.788403511E-1,1.599326730E0
1.730772299E0,9.648633003E0,-4.716577232E-1,1.592144132E0
1.732807914E0,9.648633003E0,-4.836287498E-1,1.596932530E0
1.734877876E0,9.658209801E0,-5.051765442E-1,1.594538331E0
1.736913260E0,9.653421402E0,-4.860229492E-1,1.587355733E0
1.738918106E0,9.662998199E0,-4.884171486E-1,1.582567334E0
1.740918376E0,9.648633003E0,-4.955997467E-1,1.572990537E0
1.742988260E0,9.646238327E0,-5.123591423E-1,1.577778935E0
1.745023683E0,9.641449928E0,-5.195417404E-1,1.589749932E0
1.747056683E0,9.643844604E0,-5.051765442E-1,1.592144132E0
1.749056914E0,9.636661530E0,-4.979939461E-1,1.582567334E0
1.751125645E0,9.655815125E0,-5.075707436E-1,1.580173135E0
1.753160760E0,9.646238327E0,-5.219359994E-1,1.575384736E0
1.755229991E0,9.639056206E0,-5.171475410E-1,1.572990537E0
1.757264952E0,9.648633003E0,-5.219359994E-1,1.561019540E0
1.759264760E0,9.651026726E0,-5.267243981E-1,1.565807939E0
1.761264837E0,9.662998199E0,-5.410895944E-1,1.561019540E0
1.763334722E0,9.655815125E0,-5.578489900E-1,1.553836942E0
1.765369760E0,9.658209801E0,-5.554547906E-1,1.546654344E0
1.767371299E0,9.677363396E0,-5.458779931E-1,1.553836942E0
1.769371529E0,9.674968719E0,-5.554547906E-1,1.544260144E0
1.771441222E0,9.677363396E0,-5.602431893E-1,1.544260144E0
1.773476799E0,9.679757118E0,-5.817909837E-1,1.546654344E0
1.775546375E0,9.677363396E0,-5.817909837E-1,1.534683347E0
1.777581952E0,9.689333916E0,-5.817909837E-1,1.534683347E0
1.779586298E0,9.710882187E0,-5.817909837E-1,1.529894829E0
1.781586952E0,9.708487511E0,-6.081272364E-1,1.517923832E0
1.783656722E0,9.713275909E0,-6.153098345E-1,1.515529633E0
1.785692529E0,9.727641106E0,-6.105214357E-1,1.517923832E0
1.787726952E0,9.730035782E0,-6.081272364E-1,1.520318031E0
1.789727722E0,9.737217903E0,-6.081272364E-1,1.520318031E0
1.791797683E0,9.756371498E0,-6.105214357E-1,1.503558636E0
1.793833068E0,9.761159897E0,-6.105214357E-1,1.508347034E0
1.795902875E0,9.763554573E0,-6.129156351E-1,1.505952835E0
1.797938145E0,9.770736694E0,-6.153098345E-1,1.508347034E0
1.799963106E0,9.763554573E0,-6.081272364E-1,1.508347034E0
1.801963568E0,9.753977776E0,-6.033388376E-1,1.505952835E0
1.804033414E0,9.742006302E0,-6.105214357E-1,1.503558636E0
1.806068952E0,9.751583099E0,-6.057330370E-1,1.493981838E0
1.808069606E0,9.753977776E0,-5.985504389E-1,1.496376038E0
1.810070414E0,9.749189377E0,-5.817909837E-1,1.498770237E0
1.812140606E0,9.730035782E0,-5.865794420E-1,1.484405041E0
1.814176260E0,9.732429504E0,-5.770025849E-1,1.486799240E0
1.816246491E0,9.732429504E0,-5.530605912E-1,1.496376038E0
1.818282452E0,9.720458984E0,-5.482721925E-1,1.510741234E0
1.820287298E0,9.732429504E0,-5.482721925E-1,1.505952835E0
1.822288491E0,9.730035782E0,-5.363011956E-1,1.508347034E0
1.824358375E0,9.715670586E0,-5.315127969E-1,1.496376038E0
1.826394221E0,9.718064308E0,-5.267243981E-1,1.496376038E0
1.828395144E0,9.710882187E0,-5.243301988E-1,1.486799240E0
1.830396183E0,9.698910713E0,-5.147533417E-1,1.498770237E0
1.832465760E0,9.708487511E0,-5.195417404E-1,1.501164436E0
1.834501029E0,9.720458984E0,-5.243301988E-1,1.493981838E0
1.836570414E0,9.710882187E0,-5.267243981E-1,1.479616642E0
1.838605029E0,9.715670586E0,-5.434837937E-1,1.486799240E0
1.840605683E0,9.715670586E0,-5.506663918E-1,1.477222443E0
1.842605875E0,9.701305389E0,-5.482721925E-1,1.472434044E0
1.844674875E0,9.698910713E0,-5.458779931E-1,1.455674648E0
1.846710106E0,9.691728592E0,-5.530605912E-1,1.448492050E0
1.848712106E0,9.696516991E0,-5.147533417E-1,1.450886250E0
1.850712683E0,9.691728592E0,-5.171475410E-1,1.453280449E0
1.852782260E0,9.682151794E0,-5.267243981E-1,1.448492050E0
1.854817952E0,9.710882187E0,-5.099649429E-1,1.434126854E0
1.856887337E0,9.686940193E0,-5.243301988E-1,1.424550056E0
1.858922798E0,9.677363396E0,-5.315127969E-1,1.426944256E0
1.860927260E0,9.684545517E0,-5.219359994E-1,1.410184860E0
1.862927106E0,9.684545517E0,-5.219359994E-1,1.403002143E0
1.864996183E0,9.686940193E0,-5.195417404E-1,1.395819545E0
1.867031067E0,9.701305389E0,-5.219359994E-1,1.393425345E0
1.869030914E0,9.713275909E0,-5.219359994E-1,1.393425345E0
1.871030875E0,9.718064308E0,-5.099649429E-1,1.388636947E0
1.873099606E0,9.713275909E0,-5.003881454E-1,1.383848548E0
1.875134414E0,9.703699112E0,-5.027823448E-1,1.386242747E0
1.877203490E0,9.715670586E0,-5.027823448E-1,1.374271750E0
1.879238760E0,9.727641106E0,-4.979939461E-1,1.362300754E0
1.881238913E0,9.730035782E0,-5.099649429E-1,1.364694953E0
1.883238952E0,9.737217903E0,-5.123591423E-1,1.371877551E0
1.885308067E0,9.753977776E0,-5.003881454E-1,1.357512355E0
1.887343221E0,9.770736694E0,-4.932055473E-1,1.345541358E0
1.889352798E0,9.777919769E0,-4.836287498E-1,1.347935557E0
1.891353260E0,9.763554573E0,-5.003881454E-1,1.352723956E0
1.893423029E0,9.777919769E0,-5.027823448E-1,1.350329757E0
1.895458375E0,9.782708168E0,-4.979939461E-1,1.340752959E0
1.897527875E0,9.753977776E0,-5.075707436E-1,1.345541358E0
1.899563183E0,9.775525093E0,-5.195417404E-1,1.338358760E0
1.901567760E0,9.775525093E0,-5.363011956E-1,1.343147159E0
1.903568106E0,9.775525093E0,-5.339069963E-1,1.355118155E0
1.905637452E0,9.794678688E0,-5.219359994E-1,1.347935557E0
1.907672221E0,9.794678688E0,-5.339069963E-1,1.347935557E0
1.909672644E0,9.792284966E0,-5.434837937E-1,1.347935557E0
1.911673144E0,9.775525093E0,-5.602431893E-1,1.335964561E0
1.913742952E0,9.782708168E0,-5.554547906E-1,1.328781962E0
1.915778260E0,9.789890289E0,-5.482721925E-1,1.323993564E0
1.917848067E0,9.770736694E0,-5.506663918E-1,1.312022567E0
1.919883952E0,9.756371498E0,-5.458779931E-1,1.319205165E0
1.921896490E0,9.763554573E0,-5.434837937E-1,1.309628367E0
1.923897183E0,9.761159897E0,-5.650315881E-1,1.292868972E0
1.925966567E0,9.758766174E0,-5.626373887E-1,1.283292055E0
1.928002144E0,9.751583099E0,-5.578489900E-1,1.280897856E0
1.930004029E0,9.753977776E0,-5.554547906E-1,1.268926859E0
1.932004567E0,9.770736694E0,-5.626373887E-1,1.273715258E0
1.934074413E0,9.765948296E0,-5.602431893E-1,1.276109457E0
1.936109875E0,9.765948296E0,-5.626373887E-1,1.276109457E0
1.938179452E0,9.761159897E0,-5.698199868E-1,1.276109457E0
1.940214644E0,9.753977776E0,-5.746083856E-1,1.278503656E0
1.942219029E0,9.751583099E0,-5.770025849E-1,1.283292055E0
1.944219606E0,9.744400978E0,-5.626373887E-1,1.273715258E0
1.946289259E0,9.756371498E0,-5.578489900E-1,1.271321058E0
1.948324759E0,9.753977776E0,-5.746083856E-1,1.261744261E0
1.950324682E0,9.730035782E0,-5.770025849E-1,1.256955862E0
1.952325259E0,9.720458984E0,-5.746083856E-1,1.259350061E0
1.954394990E0,9.722852707E0,-5.530605912E-1,1.259350061E0
1.956430221E0,9.720458984E0,-5.506663918E-1,1.259350061E0
1.958499798E0,9.722852707E0,-5.506663918E-1,1.271321058E0
1.960534913E0,9.715670586E0,-5.458779931E-1,1.268926859E0
1.962567644E0,9.696516991E0,-5.506663918E-1,1.252167463E0
1.964567721E0,9.682151794E0,-5.434837937E-1,1.244984865E0
1.966637952E0,9.662998199E0,-5.434837937E-1,1.228225470E0
1.968673375E0,9.653421402E0,-5.386953950E-1,1.216254473E0
1.970674490E0,9.660603523E0,-5.410895944E-1,1.223437071E0
1.972674913E0,9.665391922E0,-5.291185975E-1,1.230619669E0
1.974744529E0,9.653421402E0,-4.979939461E-1,1.221042871E0
1.976779644E0,9.658209801E0,-4.955997467E-1,1.223437071E0
1.978849605E0,9.648633003E0,-5.243301988E-1,1.216254473E0
1.980884028E0,9.660603523E0,-5.075707436E-1,1.206677675E0
1.982888836E0,9.660603523E0,-5.027823448E-1,1.201889277E0
1.984888528E0,9.667786598E0,-5.147533417E-1,1.206677675E0
1.986958875E0,9.682151794E0,-5.027823448E-1,1.209071875E0
1.988993836E0,9.684545517E0,-5.075707436E-1,1.204283476E0
1.991027605E0,9.679757118E0,-4.908113480E-1,1.201889277E0
1.993028182E0,9.691728592E0,-4.788403511E-1,1.192312479E0
1.995098028E0,9.694122314E0,-4.932055473E-1,1.182735682E0
1.997133182E0,9.703699112E0,-4.979939461E-1,1.180341482E0
1.999202951E0,9.710882187E0,-4.908113480E-1,1.177947283E0
2.001238490E0,9.727641106E0,-4.788403511E-1,1.163581967E0
2.003272298E0,9.730035782E0,-4.740519226E-1,1.161187768E0
2.005273144E0,9.739612579E0,-4.764461517E-1,1.163581967E0
2.007343259E0,9.756371498E0,-4.979939461E-1,1.158793569E0
2.009378567E0,9.751583099E0,-4.955997467E-1,1.154005170E0
2.011381644E0,9.746794701E0,-4.908113480E-1,1.149216771E0
2.013382298E0,9.746794701E0,-4.932055473E-1,1.144428372E0
2.015452259E0,9.744400978E0,-5.003881454E-1,1.144428372E0
2.017487951E0,9.744400978E0,-5.147533417E-1,1.151610970E0
2.019557490E0,9.744400978E0,-5.147533417E-1,1.137245774E0
2.021592721E0,9.753977776E0,-5.243301988E-1,1.146822572E0
2.023597451E0,9.758766174E0,-5.291185975E-1,1.151610970E0
2.025597682E0,9.763554573E0,-5.147533417E-1,1.151610970E0
2.027667759E0,9.770736694E0,-5.147533417E-1,1.158793569E0
2.029703682E0,9.751583099E0,-5.315127969E-1,1.161187768E0
2.031704721E0,9.722852707E0,-5.434837937E-1,1.161187768E0
2.033705836E0,9.722852707E0,-5.434837937E-1,1.154005170E0
2.035775721E0,9.720458984E0,-5.506663918E-1,1.158793569E0
2.037811451E0,9.730035782E0,-5.674257874E-1,1.173158884E0
2.039881259E0,9.715670586E0,-5.746083856E-1,1.173158884E0
2.041917028E0,9.703699112E0,-5.913678408E-1,1.163581967E0
2.043942528E0,9.696516991E0,-5.770025849E-1,1.177947283E0
2.045943144E0,9.691728592E0,-5.650315881E-1,1.182735682E0
2.048012951E0,9.696516991E0,-5.674257874E-1,1.175553083E0
2.050048567E0,9.694122314E0,-5.817909837E-1,1.161187768E0
2.052050413E0,9.674968719E0,-5.841852427E-1,1.158793569E0
2.054050951E0,9.667786598E0,-5.817909837E-1,1.156399369E0
2.056120951E0,9.660603523E0,-5.650315881E-1,1.158793569E0
2.058156144E0,9.660603523E0,-5.626373887E-1,1.149216771E0
2.060226220E0,9.653421402E0,-5.602431893E-1,1.149216771E0
2.062261720E0,9.646238327E0,-5.626373887E-1,1.142034173E0
2.064266220E0,9.643844604E0,-5.434837937E-1,1.137245774E0
2.066266759E0,9.643844604E0,-5.339069963E-1,1.139639974E0
2.068336644E0,9.655815125E0,-5.243301988E-1,1.130063176E0
2.070372144E0,9.682151794E0,-5.267243981E-1,1.137245774E0
2.072372490E0,9.677363396E0,-5.267243981E-1,1.142034173E0
2.074372990E0,9.655815125E0,-5.267243981E-1,1.149216771E0
2.076442836E0,9.653421402E0,-5.003881454E-1,1.144428372E0
2.078477951E0,9.662998199E0,-5.051765442E-1,1.142034173E0
2.080547836E0,9.665391922E0,-5.051765442E-1,1.151610970E0
2.082583643E0,9.674968719E0,-4.836287498E-1,1.137245774E0
2.084583913E0,9.679757118E0,-4.812345505E-1,1.137245774E0
2.086584874E0,9.682151794E0,-4.596867263E-1,1.130063176E0
2.088654413E0,9.674968719E0,-4.381389022E-1,1.120486379E0
2.090689567E0,9.677363396E0,-4.453215301E-1,1.120486379E0
2.092691413E0,9.674968719E0,-4.477157295E-1,1.120486379E0
2.094691797E0,9.682151794E0,-4.477157295E-1,1.101332784E0
2.096760874E0,9.703699112E0,-4.381389022E-1,1.096544385E0
2.098796143E0,9.720458984E0,-4.381389022E-1,1.089361787E0
2.100865528E0,9.706093788E0,-4.381389022E-1,1.072602391E0
2.102901259E0,9.710882187E0,-4.381389022E-1,1.067813993E0
2.104906105E0,9.720458984E0,-4.405331016E-1,1.055842996E0
2.106907105E0,9.718064308E0,-4.620809257E-1,1.029506683E0
2.108977105E0,9.734824181E0,-4.548983276E-1,1.017535686E0
2.111012913E0,9.744400978E0,-4.692635238E-1,1.003170490E0
2.113013182E0,9.761159897E0,-4.644751251E-1,9.864110947E-1
2.115014297E0,9.770736694E0,-4.668693244E-1,9.792284966E-1
2.117084451E0,9.794678688E0,-4.692635238E-1,9.528923035E-1
2.119120336E0,9.813833237E0,-4.884171486E-1,9.265560508E-1
2.121190066E0,9.832986832E0,-4.979939461E-1,9.145850539E-1
2.123225643E0,9.837775230E0,-4.979939461E-1,9.050082564E-1
2.125259528E0,9.844957352E0,-5.243301988E-1,8.810662031E-1
2.127260413E0,9.859322548E0,-5.195417404E-1,8.810662031E-1
2.129330874E0,9.854534149E0,-5.267243981E-1,8.858546019E-1
2.131366605E0,9.840168953E0,-5.339069963E-1,8.738836050E-1
2.133371566E0,9.821015358E0,-5.195417404E-1,8.643068075E-1
2.135372413E0,9.835380554E0,-5.099649429E-1,8.571242094E-1
2.137442566E0,9.844957352E0,-5.195417404E-1,8.571242094E-1
2.139477951E0,9.866505623E0,-5.243301988E-1,8.571242094E-1
2.141547951E0,9.861717224E0,-5.339069963E-1,8.643068075E-1
2.143583836E0,9.849745750E0,-5.267243981E-1,8.714894056E-1
2.145589105E0,9.847352028E0,-5.291185975E-1,8.690952063E-1
2.147589836E0,9.847352028E0,-5.219359994E-1,8.786720037E-1
2.149659759E0,9.852140427E0,-5.219359994E-1,8.762778044E-1
2.151696028E0,9.849745750E0,-5.171475410E-1,8.762778044E-1
2.153697028E0,9.837775230E0,-5.123591423E-1,8.858546019E-1
2.155697566E0,9.849745750E0,-5.123591423E-1,8.954314590E-1
2.157767643E0,9.852140427E0,-5.075707436E-1,8.978256583E-1
2.159803451E0,9.852140427E0,-5.051765442E-1,9.026140571E-1
2.161874028E0,9.828198433E0,-5.075707436E-1,9.074024558E-1
2.163909566E0,9.811438560E0,-5.075707436E-1,9.050082564E-1
2.165943028E0,9.809044838E0,-5.051765442E-1,9.050082564E-1
2.167943374E0,9.811438560E0,-5.123591423E-1,9.050082564E-1
2.170013028E0,9.794678688E0,-5.051765442E-1,9.074024558E-1
2.172048835E0,9.799467087E0,-5.099649429E-1,9.145850539E-1
2.174050912E0,9.789890289E0,-5.051765442E-1,9.026140571E-1
2.176051759E0,9.804255486E0,-5.027823448E-1,9.145850539E-1
2.178122066E0,9.801861763E0,-5.003881454E-1,9.145850539E-1
2.180158066E0,9.804255486E0,-5.051765442E-1,9.002198577E-1
2.182228220E0,9.804255486E0,-5.243301988E-1,9.002198577E-1
2.184264143E0,9.806650162E0,-5.171475410E-1,9.097966552E-1
2.186268951E0,9.813833237E0,-5.315127969E-1,9.026140571E-1
2.188270220E0,9.809044838E0,-5.243301988E-1,9.097966552E-1
2.190340797E0,9.811438560E0,-5.195417404E-1,9.050082564E-1
2.192377220E0,9.811438560E0,-5.267243981E-1,8.930372596E-1
2.194378566E0,9.816226959E0,-5.363011956E-1,8.810662031E-1
2.196379605E0,9.813833237E0,-5.363011956E-1,8.714894056E-1
2.198449951E0,9.837775230E0,-5.410895944E-1,8.714894056E-1
2.200486105E0,9.837775230E0,-5.482721925E-1,8.690952063E-1
2.202556297E0,9.840168953E0,-5.506663918E-1,8.738836050E-1
2.204592489E0,9.842563629E0,-5.626373887E-1,8.714894056E-1
2.206624835E0,9.830592155E0,-5.674257874E-1,8.762778044E-1
2.208625720E0,9.844957352E0,-5.746083856E-1,8.667010069E-1
2.210695758E0,9.847352028E0,-5.746083856E-1,8.619126081E-1
2.212732143E0,9.854534149E0,-5.746083856E-1,8.403648138E-1
2.214734528E0,9.873687744E0,-5.722141862E-1,8.571242094E-1
2.216735643E0,9.871294022E0,-5.722141862E-1,8.643068075E-1
2.218805874E0,9.861717224E0,-5.793967843E-1,8.714894056E-1
2.220841181E0,9.873687744E0,-5.746083856E-1,8.738836050E-1
2.222910643E0,9.868899345E0,-5.793967843E-1,8.810662031E-1
2.224946258E0,9.856928825E0,-5.865794420E-1,8.762778044E-1
2.226951643E0,9.864110947E0,-6.033388376E-1,8.810662031E-1
2.228952451E0,9.864110947E0,-6.009446383E-1,8.930372596E-1
2.231023297E0,9.871294022E0,-6.129156351E-1,8.834604025E-1
2.233058681E0,9.866505623E0,-6.272808313E-1,8.882488012E-1
2.235059835E0,9.859322548E0,-6.344634295E-1,8.858546019E-1
2.237060797E0,9.856928825E0,-6.272808313E-1,8.954314590E-1
2.239130604E0,9.871294022E0,-6.200982332E-1,9.026140571E-1
2.241166489E0,9.868899345E0,-6.320692301E-1,9.074024558E-1
2.243236412E0,9.885659218E0,-6.248866320E-1,8.978256583E-1
2.245272489E0,9.864110947E0,-6.464344859E-1,9.074024558E-1
2.247272951E0,9.861717224E0,-6.512228847E-1,9.050082564E-1
2.249273835E0,9.878476143E0,-6.512228847E-1,8.978256583E-1
2.251343604E0,9.902418137E0,-6.727706790E-1,8.858546019E-1
2.253378989E0,9.900024414E0,-6.751648784E-1,8.906430602E-1
2.255381681E0,9.888052940E0,-6.679822803E-1,8.858546019E-1
2.257382451E0,9.878476143E0,-6.751648784E-1,8.882488012E-1
2.259452412E0,9.880870819E0,-6.775590777E-1,8.930372596E-1
2.261488335E0,9.871294022E0,-6.919242740E-1,8.882488012E-1
2.263558066E0,9.878476143E0,-6.991068721E-1,8.810662031E-1
2.265593912E0,9.897629738E0,-7.038952708E-1,8.906430602E-1
2.267599374E0,9.873687744E0,-6.895300746E-1,8.834604025E-1
2.269600604E0,9.856928825E0,-6.991068721E-1,8.786720037E-1
2.271670489E0,9.866505623E0,-7.038952708E-1,8.714894056E-1
2.273706835E0,9.859322548E0,-6.991068721E-1,8.667010069E-1
2.275707450E0,9.861717224E0,-7.038952708E-1,8.714894056E-1
2.277708758E0,9.852140427E0,-7.086837292E-1,8.714894056E-1
2.279779104E0,9.842563629E0,-7.158663273E-1,8.738836050E-1
2.281815335E0,9.837775230E0,-7.182605267E-1,8.810662031E-1
2.283885758E0,9.821015358E0,-7.110779285E-1,8.930372596E-1
2.285921720E0,9.813833237E0,-7.110779285E-1,8.906430602E-1
2.287948335E0,9.792284966E0,-7.110779285E-1,8.954314590E-1
2.289949450E0,9.782708168E0,-7.158663273E-1,9.074024558E-1
2.292019527E0,9.789890289E0,-7.062895298E-1,9.217676520E-1
2.294055143E0,9.782708168E0,-7.086837292E-1,9.313444495E-1
2.296055720E0,9.765948296E0,-7.086837292E-1,9.361328483E-1
2.298056181E0,9.761159897E0,-7.206547260E-1,9.385270476E-1
2.300126258E0,9.746794701E0,-7.230489254E-1,9.457096457E-1
2.302161758E0,9.751583099E0,-7.134721279E-1,9.528923035E-1
2.304231835E0,9.756371498E0,-7.110779285E-1,9.648633003E-1
2.306267835E0,9.744400978E0,-6.991068721E-1,9.600749016E-1
2.308273066E0,9.744400978E0,-6.967126727E-1,9.624691010E-1
2.310274066E0,9.744400978E0,-6.847416759E-1,9.624691010E-1
2.312344873E0,9.727641106E0,-6.751648784E-1,9.504981041E-1
2.314381027E0,9.725247383E0,-6.679822803E-1,9.457096457E-1
2.316415296E0,9.730035782E0,-6.703764796E-1,9.457096457E-1
2.318416450E0,9.744400978E0,-6.536170840E-1,9.528923035E-1
2.320486873E0,9.727641106E0,-6.392518282E-1,9.361328483E-1
2.322522989E0,9.722852707E0,-6.224924326E-1,9.337386489E-1
2.324593104E0,9.734824181E0,-6.272808313E-1,9.289502501E-1
2.326628873E0,9.734824181E0,-6.560112834E-1,9.241618514E-1
2.328642643E0,9.742006302E0,-6.464344859E-1,9.193734527E-1
2.330643719E0,9.746794701E0,-6.440402865E-1,9.145850539E-1
2.332713758E0,9.742006302E0,-6.392518282E-1,9.050082564E-1
2.334749835E0,9.744400978E0,-6.416460276E-1,8.858546019E-1
2.336752527E0,9.756371498E0,-6.177040339E-1,8.762778044E-1
2.338753219E0,9.753977776E0,-6.057330370E-1,8.499416113E-1
2.340823066E0,9.753977776E0,-6.129156351E-1,8.355764151E-1
2.342858912E0,9.753977776E0,-6.081272364E-1,8.236053586E-1
2.344928950E0,9.782708168E0,-6.200982332E-1,8.188169599E-1
2.346964681E0,9.789890289E0,-6.057330370E-1,8.020575643E-1
2.348969335E0,9.797073364E0,-6.081272364E-1,7.972691655E-1
2.350970758E0,9.806650162E0,-6.320692301E-1,7.805097699E-1
2.353040873E0,9.813833237E0,-6.344634295E-1,7.445967197E-1
2.355076642E0,9.823410034E0,-6.344634295E-1,7.302315235E-1
2.357077412E0,9.828198433E0,-6.320692301E-1,7.206547260E-1
2.359078066E0,9.842563629E0,-6.272808313E-1,7.038952708E-1
2.361147489E0,9.842563629E0,-6.272808313E-1,6.919242740E-1
2.363183142E0,9.847352028E0,-6.224924326E-1,6.679822803E-1
2.365253142E0,9.859322548E0,-6.057330370E-1,6.655880809E-1
2.367288335E0,9.861717224E0,-6.057330370E-1,6.560112834E-1
2.369289950E0,9.878476143E0,-6.057330370E-1,6.440402865E-1
2.371290796E0,9.866505623E0,-5.913678408E-1,6.320692301E-1
2.373360642E0,9.873687744E0,-6.033388376E-1,6.320692301E-1
2.375396296E0,9.890447617E0,-5.961562395E-1,6.200982332E-1
2.377407181E0,9.873687744E0,-5.746083856E-1,5.985504389E-1
2.379407719E0,9.876082420E0,-5.770025849E-1,6.033388376E-1
2.381477296E0,9.888052940E0,-5.746083856E-1,6.057330370E-1
2.383512835E0,9.904812813E0,-5.746083856E-1,6.009446383E-1
2.385582796E0,9.911994934E0,-5.602431893E-1,6.033388376E-1
2.387618104E0,9.876082420E0,-5.554547906E-1,6.081272364E-1
2.389622681E0,9.864110947E0,-5.267243981E-1,6.105214357E-1
2.391623565E0,9.849745750E0,-5.291185975E-1,6.033388376E-1
2.393693412E0,9.842563629E0,-5.291185975E-1,6.081272364E-1
2.395729027E0,9.818621635E0,-5.315127969E-1,6.153098345E-1
2.397762873E0,9.809044838E0,-5.219359994E-1,6.248866320E-1
2.399763642E0,9.816226959E0,-5.195417404E-1,6.248866320E-1
2.401833950E0,9.832986832E0,-5.195417404E-1,6.153098345E-1
2.403870027E0,9.813833237E0,-5.195417404E-1,6.153098345E-1
2.405939988E0,9.809044838E0,-5.075707436E-1,6.081272364E-1
2.407975796E0,9.809044838E0,-5.099649429E-1,6.033388376E-1
2.409976373E0,9.806650162E0,-5.003881454E-1,6.177040339E-1
2.411976988E0,9.797073364E0,-5.123591423E-1,6.177040339E-1
2.414047219E0,9.809044838E0,-5.099649429E-1,6.105214357E-1
2.416083258E0,9.806650162E0,-4.955997467E-1,6.368576288E-1
2.418085950E0,9.806650162E0,-4.812345505E-1,6.344634295E-1
2.420086988E0,9.813833237E0,-4.932055473E-1,6.248866320E-1
2.422157296E0,9.813833237E0,-4.979939461E-1,6.200982332E-1
2.424193411E0,9.816226959E0,-4.908113480E-1,6.200982332E-1
2.426263565E0,9.794678688E0,-5.051765442E-1,6.200982332E-1
2.428299373E0,9.789890289E0,-5.171475410E-1,6.224924326E-1
2.430304796E0,9.792284966E0,-5.075707436E-1,6.248866320E-1
2.432304873E0,9.801861763E0,-5.027823448E-1,6.177040339E-1
2.434374911E0,9.804255486E0,-5.123591423E-1,6.200982332E-1
2.436410681E0,9.811438560E0,-5.243301988E-1,6.200982332E-1
2.438411681E0,9.811438560E0,-5.123591423E-1,6.105214357E-1
2.440412488E0,9.818621635E0,-5.291185975E-1,6.057330370E-1
2.442461488E0,9.825803757E0,-5.267243981E-1,6.177040339E-1
2.444462334E0,9.842563629E0,-5.315127969E-1,6.153098345E-1
2.446532181E0,9.828198433E0,-5.410895944E-1,6.033388376E-1
2.448567950E0,9.830592155E0,-5.315127969E-1,6.033388376E-1
2.450601257E0,9.837775230E0,-5.410895944E-1,6.033388376E-1
2.452602104E0,9.818621635E0,-5.482721925E-1,6.081272364E-1
2.454671988E0,9.816226959E0,-5.434837937E-1,6.081272364E-1
2.456707719E0,9.840168953E0,-5.530605912E-1,6.009446383E-1
2.458710027E0,9.856928825E0,-5.650315881E-1,6.009446383E-1
2.460710680E0,9.852140427E0,-5.602431893E-1,6.009446383E-1
2.462780565E0,9.849745750E0,-5.889736414E-1,5.913678408E-1
2.464816334E0,9.821015358E0,-5.722141862E-1,5.793967843E-1
2.466886527E0,9.821015358E0,-5.650315881E-1,5.770025849E-1
2.468922719E0,9.837775230E0,-5.722141862E-1,5.626373887E-1
2.470928373E0,9.835380554E0,-5.841852427E-1,5.722141862E-1
2.472929450E0,9.830592155E0,-5.889736414E-1,5.698199868E-1
2.474999527E0,9.823410034E0,-5.793967843E-1,5.482721925E-1
2.477035719E0,9.837775230E0,-6.009446383E-1,5.434837937E-1
2.479036757E0,9.847352028E0,-6.057330370E-1,5.482721925E-1
2.481037950E0,9.823410034E0,-6.009446383E-1,5.458779931E-1
2.483107680E0,9.830592155E0,-6.129156351E-1,5.386953950E-1
2.485143719E0,9.837775230E0,-6.224924326E-1,5.386953950E-1
2.487213873E0,9.825803757E0,-6.200982332E-1,5.267243981E-1
2.489249527E0,9.837775230E0,-6.368576288E-1,5.243301988E-1
2.491282950E0,9.844957352E0,-6.368576288E-1,5.195417404E-1
2.493283565E0,9.842563629E0,-6.440402865E-1,5.243301988E-1
2.495353296E0,9.818621635E0,-6.512228847E-1,5.195417404E-1
2.497388873E0,9.832986832E0,-6.344634295E-1,5.315127969E-1
2.499390796E0,9.837775230E0,-6.368576288E-1,5.386953950E-1
2.501390834E0,9.837775230E0,-6.224924326E-1,5.291185975E-1
2.503460180E0,9.835380554E0,-6.224924326E-1,5.291185975E-1
2.505495796E0,9.835380554E0,-6.129156351E-1,5.315127969E-1
2.507565411E0,9.828198433E0,-6.105214357E-1,5.315127969E-1
2.509601142E0,9.801861763E0,-6.057330370E-1,5.386953950E-1
2.511605757E0,9.804255486E0,-6.033388376E-1,5.386953950E-1
2.513606142E0,9.818621635E0,-5.937620401E-1,5.363011956E-1
2.515675796E0,9.825803757E0,-5.889736414E-1,5.339069963E-1
2.517711026E0,9.832986832E0,-5.913678408E-1,5.363011956E-1
2.519744757E0,9.840168953E0,-6.177040339E-1,5.410895944E-1
2.521745603E0,9.825803757E0,-6.105214357E-1,5.386953950E-1
2.523815142E0,9.813833237E0,-6.105214357E-1,5.410895944E-1
2.525850680E0,9.842563629E0,-6.009446383E-1,5.458779931E-1
2.527920180E0,9.823410034E0,-5.865794420E-1,5.434837937E-1
2.529955565E0,9.811438560E0,-5.793967843E-1,5.386953950E-1
2.531981719E0,9.816226959E0,-5.793967843E-1,5.386953950E-1
2.533981988E0,9.823410034E0,-5.841852427E-1,5.363011956E-1
2.536051219E0,9.821015358E0,-5.698199868E-1,5.315127969E-1
2.538086796E0,9.847352028E0,-5.650315881E-1,5.219359994E-1
2.540089219E0,9.859322548E0,-5.722141862E-1,5.123591423E-1
2.542090026E0,9.847352028E0,-5.770025849E-1,5.171475410E-1
2.544159949E0,9.844957352E0,-5.722141862E-1,5.219359994E-1
2.546195488E0,9.830592155E0,-5.650315881E-1,5.075707436E-1
2.548265219E0,9.842563629E0,-5.626373887E-1,5.003881454E-1
2.550301488E0,9.847352028E0,-5.722141862E-1,5.075707436E-1
2.552307411E0,9.856928825E0,-5.722141862E-1,5.051765442E-1
2.554308449E0,9.856928825E0,-5.650315881E-1,5.003881454E-1
2.556378526E0,9.842563629E0,-5.674257874E-1,4.812345505E-1
2.558414180E0,9.828198433E0,-5.770025849E-1,4.764461517E-1
2.560414796E0,9.832986832E0,-5.817909837E-1,4.836287498E-1
2.562415372E0,9.832986832E0,-5.841852427E-1,4.812345505E-1
2.564485180E0,9.830592155E0,-5.793967843E-1,4.836287498E-1
2.566521219E0,9.811438560E0,-5.937620401E-1,4.764461517E-1
2.568591488E0,9.806650162E0,-5.937620401E-1,4.764461517E-1
2.570627295E0,9.816226959E0,-6.057330370E-1,4.740519226E-1
2.572628257E0,9.789890289E0,-5.841852427E-1,4.740519226E-1
2.574628872E0,9.789890289E0,-5.841852427E-1,4.668693244E-1
2.576698565E0,9.799467087E0,-6.081272364E-1,4.572925270E-1
2.578734295E0,9.801861763E0,-6.009446383E-1,4.525041282E-1
2.580736565E0,9.806650162E0,-5.985504389E-1,4.453215301E-1
2.582737142E0,9.794678688E0,-6.033388376E-1,4.381389022E-1
2.584807103E0,9.797073364E0,-6.200982332E-1,4.357447028E-1
2.586842295E0,9.794678688E0,-6.296750307E-1,4.381389022E-1
2.588911334E0,9.797073364E0,-6.344634295E-1,4.333505034E-1
2.590946526E0,9.818621635E0,-6.416460276E-1,4.189853072E-1
2.592951295E0,9.823410034E0,-6.416460276E-1,4.189853072E-1
2.594951795E0,9.828198433E0,-6.464344859E-1,4.189853072E-1
2.597020642E0,9.825803757E0,-6.512228847E-1,4.213795066E-1
2.599056411E0,9.832986832E0,-6.607996821E-1,4.189853072E-1
2.601056603E0,9.852140427E0,-6.607996821E-1,4.189853072E-1
2.603056757E0,9.859322548E0,-6.584054828E-1,4.165911078E-1
2.605125834E0,9.856928825E0,-6.631938815E-1,4.141969085E-1
2.607161103E0,9.873687744E0,-6.703764796E-1,4.022258818E-1
2.609230757E0,9.864110947E0,-6.679822803E-1,4.046200812E-1
2.611266411E0,9.852140427E0,-6.727706790E-1,4.022258818E-1
2.613300449E0,9.852140427E0,-6.823474765E-1,4.118026793E-1
2.615300757E0,9.861717224E0,-6.871358752E-1,4.070142806E-1
2.617369718E0,9.871294022E0,-6.799532771E-1,4.070142806E-1
2.619405295E0,9.854534149E0,-6.847416759E-1,4.022258818E-1
2.621408026E0,9.837775230E0,-6.799532771E-1,4.118026793E-1
2.623408411E0,9.840168953E0,-6.775590777E-1,4.070142806E-1
2.625478257E0,9.844957352E0,-6.799532771E-1,4.141969085E-1
2.627513680E0,9.842563629E0,-6.703764796E-1,4.118026793E-1
2.629583372E0,9.840168953E0,-6.727706790E-1,3.974374831E-1
2.631618564E0,9.847352028E0,-6.847416759E-1,3.950432837E-1
2.633623680E0,9.852140427E0,-6.679822803E-1,3.806780577E-1
2.635623757E0,9.854534149E0,-6.584054828E-1,3.711012602E-1
2.637694218E0,9.840168953E0,-6.703764796E-1,3.615244627E-1
2.639728488E0,9.840168953E0,-6.775590777E-1,3.615244627E-1
2.641762141E0,9.825803757E0,-6.703764796E-1,3.639186621E-1
2.643762295E0,9.835380554E0,-6.847416759E-1,3.687070608E-1
2.645831795E0,9.842563629E0,-6.775590777E-1,3.758896589E-1
2.647866564E0,9.830592155E0,-6.703764796E-1,3.734954596E-1
2.649936180E0,9.823410034E0,-6.679822803E-1,3.806780577E-1
2.651971526E0,9.832986832E0,-6.560112834E-1,3.854664862E-1
2.653971987E0,9.837775230E0,-6.607996821E-1,3.830722570E-1
2.655971872E0,9.837775230E0,-6.655880809E-1,3.878606856E-1
2.658041218E0,9.847352028E0,-6.536170840E-1,4.070142806E-1
2.660076257E0,9.842563629E0,-6.799532771E-1,4.094084799E-1
2.662078064E0,9.852140427E0,-6.823474765E-1,4.165911078E-1
2.664078064E0,9.842563629E0,-6.847416759E-1,4.165911078E-1
2.666147603E0,9.835380554E0,-6.751648784E-1,4.357447028E-1
2.668183295E0,9.835380554E0,-6.703764796E-1,4.429273009E-1
2.670253218E0,9.849745750E0,-7.086837292E-1,4.596867263E-1
2.672289103E0,9.837775230E0,-7.182605267E-1,4.692635238E-1
2.674293603E0,9.840168953E0,-7.206547260E-1,4.644751251E-1
2.676294795E0,9.832986832E0,-7.038952708E-1,4.644751251E-1
2.678364564E0,9.837775230E0,-6.967126727E-1,4.716577232E-1
2.680400180E0,9.837775230E0,-6.967126727E-1,4.860229492E-1
2.682434487E0,9.844957352E0,-7.326257229E-1,4.979939461E-1
2.684435295E0,9.837775230E0,-7.350199223E-1,5.003881454E-1
2.686504603E0,9.830592155E0,-7.350199223E-1,5.003881454E-1
2.688540372E0,9.842563629E0,-7.134721279E-1,4.979939461E-1
2.690609718E0,9.837775230E0,-7.038952708E-1,5.027823448E-1
2.692645064E0,9.837775230E0,-7.110779285E-1,5.003881454E-1
2.694645949E0,9.832986832E0,-7.062895298E-1,5.051765442E-1
2.696645641E0,9.828198433E0,-7.086837292E-1,4.979939461E-1
2.698715257E0,9.832986832E0,-7.134721279E-1,4.979939461E-1
2.700750257E0,9.823410034E0,-6.991068721E-1,4.979939461E-1
2.702754026E0,9.832986832E0,-7.230489254E-1,4.740519226E-1
2.704754756E0,9.828198433E0,-7.206547260E-1,4.692635238E-1
2.706823295E0,9.801861763E0,-7.062895298E-1,4.596867263E-1
2.708858026E0,9.799467087E0,-7.015010715E-1,4.620809257E-1
2.710927795E0,9.797073364E0,-6.823474765E-1,4.501099288E-1
2.712963256E0,9.777919769E0,-6.823474765E-1,4.548983276E-1
2.714968333E0,9.782708168E0,-6.943184733E-1,4.572925270E-1
2.716968756E0,9.792284966E0,-6.991068721E-1,4.548983276E-1
2.719038833E0,9.782708168E0,-6.943184733E-1,4.453215301E-1
2.721074180E0,9.770736694E0,-6.847416759E-1,4.189853072E-1
2.723108795E0,9.749189377E0,-6.775590777E-1,4.213795066E-1
2.725110064E0,9.751583099E0,-6.727706790E-1,4.261679053E-1
2.727179987E0,9.770736694E0,-6.895300746E-1,4.237737060E-1
2.729216103E0,9.765948296E0,-6.943184733E-1,4.237737060E-1
2.731286449E0,9.753977776E0,-6.967126727E-1,4.285621047E-1
2.733322833E0,9.746794701E0,-6.967126727E-1,4.429273009E-1
2.735342179E0,9.742006302E0,-7.182605267E-1,4.357447028E-1
2.737343064E0,9.739612579E0,-7.326257229E-1,4.381389022E-1
2.739413026E0,9.749189377E0,-7.086837292E-1,4.548983276E-1
2.741448410E0,9.763554573E0,-7.062895298E-1,4.525041282E-1
2.743450987E0,9.765948296E0,-7.278373241E-1,4.501099288E-1
2.745452179E0,9.780313492E0,-7.374141216E-1,4.572925270E-1
2.747522718E0,9.804255486E0,-7.350199223E-1,4.764461517E-1
2.749558795E0,9.794678688E0,-7.469909191E-1,4.812345505E-1
2.751629564E0,9.811438560E0,-7.422025204E-1,4.836287498E-1
2.753665872E0,9.830592155E0,-7.685387731E-1,4.979939461E-1
2.755671179E0,9.828198433E0,-7.709329724E-1,5.003881454E-1
2.757672679E0,9.835380554E0,-7.781155705E-1,4.836287498E-1
2.759743564E0,9.830592155E0,-7.876923680E-1,4.788403511E-1
2.761780295E0,9.840168953E0,-7.900865674E-1,4.812345505E-1
2.763781525E0,9.847352028E0,-7.852981687E-1,4.884171486E-1
2.765782949E0,9.837775230E0,-8.140285611E-1,4.740519226E-1
2.767853641E0,9.847352028E0,-8.164227605E-1,4.668693244E-1
2.769889718E0,9.832986832E0,-7.996633649E-1,4.644751251E-1
2.771960525E0,9.842563629E0,-8.044517636E-1,4.572925270E-1
2.773996872E0,9.842563629E0,-7.876923680E-1,4.381389022E-1
2.776022679E0,9.852140427E0,-7.900865674E-1,4.357447028E-1
2.778023872E0,9.856928825E0,-7.948749661E-1,4.213795066E-1
2.780094025E0,9.859322548E0,-7.972691655E-1,4.094084799E-1
2.782129910E0,9.844957352E0,-7.948749661E-1,3.974374831E-1
2.784131410E0,9.835380554E0,-7.805097699E-1,3.782838583E-1
2.786132218E0,9.835380554E0,-7.709329724E-1,3.639186621E-1
2.788202372E0,9.832986832E0,-7.757213712E-1,3.567360640E-1
2.790238602E0,9.828198433E0,-7.805097699E-1,3.423708379E-1
2.792308872E0,9.832986832E0,-7.685387731E-1,3.423708379E-1
2.794344948E0,9.832986832E0,-7.709329724E-1,3.423708379E-1
2.796349295E0,9.847352028E0,-7.781155705E-1,3.495534360E-1
2.798349641E0,9.856928825E0,-7.733271718E-1,3.447650373E-1
2.800419102E0,9.861717224E0,-7.685387731E-1,3.423708379E-1
2.802454295E0,9.876082420E0,-7.517793179E-1,3.375824392E-1
2.804488833E0,9.861717224E0,-7.637503147E-1,3.303998411E-1
2.806489564E0,9.868899345E0,-7.589619160E-1,3.375824392E-1
2.808558948E0,9.868899345E0,-7.445967197E-1,3.519476354E-1
2.810594833E0,9.864110947E0,-7.589619160E-1,3.567360640E-1
2.812664871E0,9.864110947E0,-7.637503147E-1,3.591302633E-1
2.814700948E0,9.866505623E0,-7.685387731E-1,3.543418646E-1
2.816734371E0,9.883264542E0,-7.493851185E-1,3.543418646E-1
2.818735256E0,9.878476143E0,-7.517793179E-1,3.591302633E-1
2.820805064E0,9.866505623E0,-7.445967197E-1,3.687070608E-1
2.822841256E0,9.866505623E0,-7.422025204E-1,3.711012602E-1
2.824843333E0,9.868899345E0,-7.565677166E-1,3.806780577E-1
2.826844525E0,9.873687744E0,-7.422025204E-1,3.782838583E-1
2.828915064E0,9.885659218E0,-7.469909191E-1,3.806780577E-1
2.830951256E0,9.864110947E0,-7.398083210E-1,3.854664862E-1
2.833021718E0,9.864110947E0,-7.230489254E-1,3.950432837E-1
2.835057679E0,9.868899345E0,-7.302315235E-1,3.974374831E-1
2.837062371E0,9.888052940E0,-7.302315235E-1,3.926490843E-1
2.839063371E0,9.878476143E0,-7.062895298E-1,3.926490843E-1
2.841133718E0,9.871294022E0,-7.110779285E-1,4.118026793E-1
2.843169910E0,9.864110947E0,-7.062895298E-1,4.046200812E-1
2.845204525E0,9.864110947E0,-6.919242740E-1,4.070142806E-1
2.847205641E0,9.871294022E0,-6.655880809E-1,3.902548850E-1
2.849275756E0,9.854534149E0,-6.655880809E-1,3.878606856E-1
2.851311717E0,9.854534149E0,-6.703764796E-1,3.926490843E-1
2.853381948E0,9.832986832E0,-6.871358752E-1,3.758896589E-1
2.855417948E0,9.849745750E0,-6.727706790E-1,3.734954596E-1
2.857451910E0,9.852140427E0,-6.775590777E-1,3.687070608E-1
2.859452910E0,9.856928825E0,-6.799532771E-1,3.567360640E-1
2.861522948E0,9.837775230E0,-6.655880809E-1,3.495534360E-1
2.863558641E0,9.832986832E0,-6.727706790E-1,3.519476354E-1
2.865569410E0,9.840168953E0,-6.799532771E-1,3.471592367E-1
2.867570602E0,9.847352028E0,-6.943184733E-1,3.423708379E-1
2.869639871E0,9.837775230E0,-6.967126727E-1,3.351882398E-1
2.871675294E0,9.821015358E0,-6.919242740E-1,3.519476354E-1
2.873745256E0,9.828198433E0,-6.991068721E-1,3.399766386E-1
2.875781025E0,9.830592155E0,-7.038952708E-1,3.375824392E-1
2.877785679E0,9.832986832E0,-7.062895298E-1,3.375824392E-1
2.879786679E0,9.832986832E0,-6.991068721E-1,3.375824392E-1
2.881856525E0,9.842563629E0,-6.919242740E-1,3.303998411E-1
2.883892948E0,9.830592155E0,-7.158663273E-1,3.208230138E-1
2.885893871E0,9.806650162E0,-7.182605267E-1,3.232172430E-1
2.887894602E0,9.806650162E0,-7.206547260E-1,3.208230138E-1
2.889964525E0,9.828198433E0,-7.302315235E-1,3.351882398E-1
2.892000371E0,9.818621635E0,-7.493851185E-1,3.351882398E-1
2.894069717E0,9.823410034E0,-7.469909191E-1,3.399766386E-1
2.896105602E0,9.818621635E0,-7.517793179E-1,3.375824392E-1
2.898139871E0,9.837775230E0,-7.541735172E-1,3.471592367E-1
2.900140833E0,9.832986832E0,-7.685387731E-1,3.471592367E-1
2.902210717E0,9.842563629E0,-7.829039693E-1,3.471592367E-1
2.904246448E0,9.859322548E0,-7.900865674E-1,3.447650373E-1
2.906249140E0,9.861717224E0,-8.164227605E-1,3.519476354E-1
2.908249525E0,9.861717224E0,-8.403648138E-1,3.591302633E-1
2.910319448E0,9.859322548E0,-8.283938169E-1,3.615244627E-1
2.912355294E0,9.876082420E0,-8.331822157E-1,3.782838583E-1
2.914425063E0,9.878476143E0,-8.427590132E-1,3.950432837E-1
2.916460871E0,9.888052940E0,-8.451532125E-1,3.974374831E-1
2.918465871E0,9.878476143E0,-8.475474119E-1,4.094084799E-1
2.920466525E0,9.876082420E0,-8.427590132E-1,4.165911078E-1
2.922536371E0,9.885659218E0,-8.403648138E-1,4.165911078E-1
2.924571679E0,9.876082420E0,-8.523358107E-1,4.309563041E-1
2.926572063E0,9.866505623E0,-8.451532125E-1,4.381389022E-1
2.928572756E0,9.861717224E0,-8.451532125E-1,4.596867263E-1
2.930642563E0,9.861717224E0,-8.307880163E-1,4.692635238E-1
2.932678179E0,9.859322548E0,-8.331822157E-1,4.764461517E-1
2.934747371E0,9.876082420E0,-8.140285611E-1,4.860229492E-1
2.936782717E0,9.866505623E0,-7.996633649E-1,4.860229492E-1
2.938783448E0,9.854534149E0,-7.996633649E-1,4.860229492E-1
2.940784217E0,9.847352028E0,-7.948749661E-1,4.884171486E-1
2.942853833E0,9.842563629E0,-7.805097699E-1,4.716577232E-1
2.944889063E0,9.832986832E0,-7.733271718E-1,4.620809257E-1
2.946889717E0,9.821015358E0,-7.781155705E-1,4.429273009E-1
2.948889717E0,9.811438560E0,-7.805097699E-1,4.429273009E-1
2.950959832E0,9.794678688E0,-7.900865674E-1,4.477157295E-1
2.952995563E0,9.792284966E0,-7.900865674E-1,4.213795066E-1
2.955065063E0,9.787496567E0,-7.637503147E-1,4.046200812E-1
2.957100832E0,9.792284966E0,-7.517793179E-1,3.950432837E-1
2.959106063E0,9.787496567E0,-7.613561153E-1,3.830722570E-1
2.961106640E0,9.749189377E0,-7.637503147E-1,3.806780577E-1
2.963176871E0,9.744400978E0,-7.685387731E-1,3.782838583E-1
2.965212525E0,9.742006302E0,-7.685387731E-1,3.782838583E-1
2.967213332E0,9.737217903E0,-7.637503147E-1,3.663128614E-1
2.969213832E0,9.742006302E0,-7.589619160E-1,3.687070608E-1
2.971284255E0,9.756371498E0,-7.637503147E-1,3.543418646E-1
2.973319948E0,9.746794701E0,-7.805097699E-1,3.447650373E-1
2.975389871E0,9.761159897E0,-7.829039693E-1,3.447650373E-1
2.977425448E0,9.773131371E0,-7.829039693E-1,3.519476354E-1
2.979425679E0,9.761159897E0,-7.685387731E-1,3.519476354E-1
2.981425832E0,9.782708168E0,-7.685387731E-1,3.639186621E-1
2.983495063E0,9.785101891E0,-7.805097699E-1,3.758896589E-1
2.985530371E0,9.806650162E0,-7.876923680E-1,3.902548850E-1
2.987531986E0,9.821015358E0,-7.972691655E-1,4.094084799E-1
2.989532217E0,9.823410034E0,-8.044517636E-1,4.141969085E-1
2.991601832E0,9.825803757E0,-7.996633649E-1,4.453215301E-1
2.993637332E0,9.847352028E0,-8.068459630E-1,4.572925270E-1
2.995707217E0,9.852140427E0,-8.068459630E-1,4.668693244E-1
2.997742294E0,9.842563629E0,-8.188169599E-1,4.668693244E-1
2.999746871E0,9.856928825E0,-8.259995580E-1,4.740519226E-1
3.001747486E0,9.866505623E0,-8.283938169E-1,4.716577232E-1
3.003816909E0,9.840168953E0,-8.188169599E-1,4.501099288E-1
3.005852986E0,9.852140427E0,-8.283938169E-1,4.405331016E-1
3.007886871E0,9.840168953E0,-8.283938169E-1,4.333505034E-1
3.009887563E0,9.828198433E0,-8.236053586E-1,4.189853072E-1
3.011956832E0,9.823410034E0,-8.331822157E-1,3.998316824E-1
3.013992755E0,9.830592155E0,-8.403648138E-1,3.902548850E-1
3.016062755E0,9.832986832E0,-8.379706144E-1,3.711012602E-1
3.018098486E0,9.811438560E0,-8.403648138E-1,3.567360640E-1
3.020123871E0,9.801861763E0,-8.451532125E-1,3.471592367E-1
3.022124755E0,9.799467087E0,-8.427590132E-1,3.399766386E-1
3.024194909E0,9.811438560E0,-8.451532125E-1,3.327940404E-1
3.026230678E0,9.811438560E0,-8.475474119E-1,3.232172430E-1
3.028233332E0,9.792284966E0,-8.571242094E-1,3.040636182E-1
3.030233986E0,9.792284966E0,-8.786720037E-1,3.064578176E-1
3.032304486E0,9.794678688E0,-8.930372596E-1,3.016694188E-1
3.034340486E0,9.799467087E0,-9.241618514E-1,2.968810201E-1
3.036410640E0,9.823410034E0,-9.241618514E-1,2.944868207E-1
3.038446524E0,9.811438560E0,-9.289502501E-1,2.920926213E-1
3.040452294E0,9.813833237E0,-9.409212470E-1,2.968810201E-1
3.042453524E0,9.825803757E0,-9.481038451E-1,2.944868207E-1
3.044523871E0,9.823410034E0,-9.600749016E-1,3.064578176E-1
3.046559832E0,9.811438560E0,-9.792284966E-1,3.136404157E-1
3.048560640E0,9.801861763E0,-9.959878922E-1,3.327940404E-1
3.050562140E0,9.792284966E0,-9.959878922E-1,3.280056417E-1
3.052632717E0,9.797073364E0,-1.019929886E0,3.399766386E-1
3.054668909E0,9.813833237E0,-1.015141487E0,3.567360640E-1
3.056739294E0,9.821015358E0,-1.019929886E0,3.663128614E-1
3.058775640E0,9.825803757E0,-1.022324085E0,3.687070608E-1
3.060776986E0,9.828198433E0,-1.029506683E0,3.950432837E-1
3.062778140E0,9.811438560E0,-1.039083481E0,4.165911078E-1
3.064848640E0,9.804255486E0,-1.041477680E0,4.237737060E-1
3.066885024E0,9.813833237E0,-1.046266198E0,4.261679053E-1
3.068888986E0,9.787496567E0,-1.029506683E0,4.381389022E-1
3.070890024E0,9.792284966E0,-1.031900883E0,4.333505034E-1
3.072960563E0,9.806650162E0,-1.027112484E0,4.357447028E-1
3.074997140E0,9.789890289E0,-1.017535686E0,4.477157295E-1
3.077067024E0,9.777919769E0,-1.010353088E0,4.453215301E-1
3.079103563E0,9.770736694E0,-1.010353088E0,4.668693244E-1
3.081107947E0,9.756371498E0,-1.003170490E0,4.788403511E-1
3.083109063E0,9.763554573E0,-1.000776291E0,4.764461517E-1
3.085178947E0,9.782708168E0,-9.983820915E-1,4.668693244E-1
3.087214755E0,9.777919769E0,-9.816226959E-1,4.668693244E-1
3.089215563E0,9.773131371E0,-9.672574997E-1,4.764461517E-1
3.091216140E0,9.756371498E0,-9.504981041E-1,5.051765442E-1
3.093285678E0,9.739612579E0,-9.552865028E-1,5.051765442E-1
3.095321524E0,9.732429504E0,-9.457096457E-1,4.979939461E-1
3.097391755E0,9.730035782E0,-9.457096457E-1,5.099649429E-1
3.099427909E0,9.725247383E0,-9.385270476E-1,5.171475410E-1
3.101429332E0,9.720458984E0,-9.289502501E-1,5.171475410E-1
3.103430447E0,9.732429504E0,-9.050082564E-1,5.147533417E-1
3.105500755E0,9.739612579E0,-9.050082564E-1,5.267243981E-1
3.107536947E0,9.742006302E0,-8.930372596E-1,5.267243981E-1
3.109540063E0,9.725247383E0,-8.882488012E-1,5.291185975E-1
3.111540332E0,9.739612579E0,-9.097966552E-1,5.434837937E-1
3.113609986E0,9.746794701E0,-9.097966552E-1,5.458779931E-1
3.115645140E0,9.753977776E0,-9.121908545E-1,5.410895944E-1
3.117714832E0,9.763554573E0,-9.145850539E-1,5.554547906E-1
3.119749947E0,9.775525093E0,-9.026140571E-1,5.650315881E-1
3.121753870E0,9.773131371E0,-8.834604025E-1,5.602431893E-1
3.123753986E0,9.761159897E0,-8.954314590E-1,5.650315881E-1
3.125824063E0,9.775525093E0,-9.050082564E-1,5.626373887E-1
3.127859293E0,9.775525093E0,-8.978256583E-1,5.698199868E-1
3.129893101E0,9.787496567E0,-8.834604025E-1,5.722141862E-1
3.131894024E0,9.799467087E0,-8.762778044E-1,5.626373887E-1
3.133963601E0,9.809044838E0,-8.762778044E-1,5.650315881E-1
3.135999178E0,9.811438560E0,-8.571242094E-1,5.770025849E-1
3.138069293E0,9.818621635E0,-8.595184088E-1,5.817909837E-1
3.140104909E0,9.816226959E0,-8.595184088E-1,5.793967843E-1
3.142118409E0,9.799467087E0,-8.427590132E-1,5.817909837E-1
3.144119293E0,9.797073364E0,-8.523358107E-1,5.865794420E-1
3.146189447E0,9.799467087E0,-8.595184088E-1,5.913678408E-1
3.148224909E0,9.789890289E0,-8.523358107E-1,5.961562395E-1
3.150227139E0,9.782708168E0,-8.355764151E-1,5.985504389E-1
3.152227755E0,9.775525093E0,-8.355764151E-1,5.961562395E-1
3.154297255E0,9.780313492E0,-8.379706144E-1,6.009446383E-1
3.156332332E0,9.794678688E0,-8.140285611E-1,5.865794420E-1
3.158401716E0,9.799467087E0,-8.092401624E-1,5.817909837E-1
3.160436986E0,9.794678688E0,-8.044517636E-1,5.865794420E-1
3.162441562E0,9.797073364E0,-8.044517636E-1,5.841852427E-1
3.164442101E0,9.804255486E0,-7.996633649E-1,5.865794420E-1
3.166511755E0,9.787496567E0,-8.068459630E-1,5.770025849E-1
3.168547139E0,9.782708168E0,-8.140285611E-1,5.841852427E-1
3.170580985E0,9.775525093E0,-8.259995580E-1,5.722141862E-1
3.172581678E0,9.787496567E0,-8.379706144E-1,5.578489900E-1
3.174651062E0,9.792284966E0,-8.188169599E-1,5.530605912E-1
3.176686909E0,9.794678688E0,-8.044517636E-1,5.554547906E-1
3.178756985E0,9.789890289E0,-8.283938169E-1,5.578489900E-1
3.180792678E0,9.785101891E0,-8.307880163E-1,5.363011956E-1
3.182826755E0,9.780313492E0,-8.451532125E-1,5.267243981E-1
3.184827178E0,9.785101891E0,-8.499416113E-1,5.267243981E-1
3.186896870E0,9.773131371E0,-8.499416113E-1,5.291185975E-1
3.188932293E0,9.765948296E0,-8.523358107E-1,5.386953950E-1
3.190934062E0,9.770736694E0,-8.571242094E-1,5.386953950E-1
3.192934524E0,9.775525093E0,-8.595184088E-1,5.291185975E-1
3.195004832E0,9.768342972E0,-8.810662031E-1,5.219359994E-1
3.197040601E0,9.763554573E0,-8.834604025E-1,5.099649429E-1
3.199110562E0,9.775525093E0,-8.714894056E-1,5.171475410E-1
3.201146524E0,9.775525093E0,-8.690952063E-1,5.051765442E-1
3.203151601E0,9.775525093E0,-8.738836050E-1,5.027823448E-1
3.205152639E0,9.768342972E0,-8.930372596E-1,5.171475410E-1
3.207223485E0,9.744400978E0,-8.978256583E-1,5.315127969E-1
3.209258524E0,9.749189377E0,-9.026140571E-1,5.363011956E-1
3.211292178E0,9.749189377E0,-9.050082564E-1,5.458779931E-1
3.213292716E0,9.756371498E0,-9.169792533E-1,5.482721925E-1
3.215362639E0,9.765948296E0,-9.265560508E-1,5.578489900E-1
3.217398716E0,9.782708168E0,-9.169792533E-1,5.746083856E-1
3.219468947E0,9.773131371E0,-9.097966552E-1,5.793967843E-1
3.221504947E0,9.773131371E0,-9.121908545E-1,5.841852427E-1
3.223505947E0,9.763554573E0,-9.121908545E-1,5.841852427E-1
3.225506524E0,9.775525093E0,-9.074024558E-1,5.817909837E-1
3.227576793E0,9.782708168E0,-9.050082564E-1,5.841852427E-1
3.229612870E0,9.780313492E0,-9.026140571E-1,5.937620401E-1
3.231616831E0,9.768342972E0,-9.002198577E-1,5.937620401E-1
3.233617447E0,9.765948296E0,-8.978256583E-1,5.937620401E-1
3.235688408E0,9.775525093E0,-8.978256583E-1,5.817909837E-1
3.237723985E0,9.770736694E0,-9.002198577E-1,5.722141862E-1
3.239793716E0,9.761159897E0,-8.978256583E-1,5.793967843E-1
3.241829601E0,9.751583099E0,-8.786720037E-1,5.865794420E-1
3.243834331E0,9.780313492E0,-8.714894056E-1,5.650315881E-1
3.245834754E0,9.780313492E0,-8.738836050E-1,5.674257874E-1
3.247904331E0,9.789890289E0,-8.786720037E-1,5.602431893E-1
3.249939908E0,9.770736694E0,-8.523358107E-1,5.602431893E-1
3.251973293E0,9.785101891E0,-8.643068075E-1,5.506663918E-1
3.253974101E0,9.787496567E0,-8.451532125E-1,5.291185975E-1
3.256043870E0,9.789890289E0,-8.403648138E-1,5.147533417E-1
3.258079601E0,9.799467087E0,-8.523358107E-1,5.123591423E-1
3.260149408E0,9.806650162E0,-8.619126081E-1,5.027823448E-1
3.262185216E0,9.816226959E0,-8.523358107E-1,4.668693244E-1
3.264210447E0,9.811438560E0,-8.451532125E-1,4.333505034E-1
3.266210870E0,9.806650162E0,-8.427590132E-1,4.237737060E-1
3.268280447E0,9.804255486E0,-8.571242094E-1,4.046200812E-1
3.270316024E0,9.813833237E0,-8.667010069E-1,4.094084799E-1
3.272317562E0,9.818621635E0,-8.643068075E-1,4.046200812E-1
3.274318331E0,9.813833237E0,-8.619126081E-1,3.926490843E-1
3.276387947E0,9.840168953E0,-8.834604025E-1,3.926490843E-1
3.278423677E0,9.840168953E0,-8.906430602E-1,3.854664862E-1
3.280493331E0,9.854534149E0,-8.882488012E-1,3.758896589E-1
3.282528947E0,9.859322548E0,-8.858546019E-1,3.615244627E-1
3.284534062E0,9.864110947E0,-8.906430602E-1,3.639186621E-1
3.286534177E0,9.876082420E0,-9.074024558E-1,3.663128614E-1
3.288603831E0,9.902418137E0,-8.978256583E-1,3.591302633E-1
3.290639370E0,9.895236015E0,-9.002198577E-1,3.687070608E-1
3.292639985E0,9.888052940E0,-9.050082564E-1,3.758896589E-1
3.294640523E0,9.902418137E0,-9.145850539E-1,3.902548850E-1
3.296710562E0,9.895236015E0,-9.169792533E-1,4.022258818E-1
3.298746293E0,9.876082420E0,-9.145850539E-1,4.046200812E-1
3.300816177E0,9.888052940E0,-9.097966552E-1,3.998316824E-1
3.302851562E0,9.890447617E0,-9.097966552E-1,3.950432837E-1
3.304884370E0,9.892841339E0,-8.930372596E-1,4.070142806E-1
3.306885100E0,9.902418137E0,-8.834604025E-1,4.141969085E-1
3.308954254E0,9.897629738E0,-8.810662031E-1,4.118026793E-1
3.310990293E0,9.876082420E0,-8.834604025E-1,4.237737060E-1
3.312992870E0,9.873687744E0,-8.978256583E-1,4.405331016E-1
3.314993831E0,9.871294022E0,-8.978256583E-1,4.429273009E-1
3.317063870E0,9.883264542E0,-8.954314590E-1,4.477157295E-1
3.319100062E0,9.873687744E0,-9.002198577E-1,4.548983276E-1
3.321170562E0,9.873687744E0,-9.074024558E-1,4.644751251E-1
3.323206408E0,9.864110947E0,-8.858546019E-1,4.740519226E-1
3.325211216E0,9.861717224E0,-8.738836050E-1,4.860229492E-1
3.327212639E0,9.864110947E0,-8.762778044E-1,4.812345505E-1
3.329282869E0,9.871294022E0,-8.619126081E-1,4.764461517E-1
3.331318946E0,9.866505623E0,-8.475474119E-1,4.764461517E-1
3.333320869E0,9.868899345E0,-8.499416113E-1,4.764461517E-1
3.335322177E0,9.856928825E0,-8.379706144E-1,4.716577232E-1
3.337392793E0,9.816226959E0,-8.331822157E-1,4.764461517E-1
3.339429100E0,9.818621635E0,-8.379706144E-1,4.836287498E-1
3.341499600E0,9.811438560E0,-8.499416113E-1,4.908113480E-1
3.343536062E0,9.801861763E0,-8.307880163E-1,5.051765442E-1
3.345570600E0,9.799467087E0,-8.259995580E-1,5.075707436E-1
3.347571523E0,9.797073364E0,-8.307880163E-1,5.147533417E-1
3.349642139E0,9.782708168E0,-8.427590132E-1,5.147533417E-1
3.351678408E0,9.773131371E0,-8.283938169E-1,5.099649429E-1
3.353688869E0,9.775525093E0,-8.188169599E-1,5.171475410E-1
3.355689792E0,9.782708168E0,-8.116343617E-1,5.243301988E-1
3.357760485E0,9.782708168E0,-8.307880163E-1,5.243301988E-1
3.359796523E0,9.773131371E0,-8.259995580E-1,5.147533417E-1
3.361867100E0,9.765948296E0,-8.283938169E-1,5.315127969E-1
3.363902985E0,9.770736694E0,-8.236053586E-1,5.267243981E-1
3.365907908E0,9.763554573E0,-8.140285611E-1,5.267243981E-1
3.367908985E0,9.749189377E0,-8.068459630E-1,5.171475410E-1
3.369978946E0,9.749189377E0,-8.068459630E-1,5.171475410E-1
3.372014908E0,9.751583099E0,-8.092401624E-1,5.171475410E-1
3.374015908E0,9.768342972E0,-7.900865674E-1,5.123591423E-1
3.376016639E0,9.765948296E0,-7.972691655E-1,5.195417404E-1
3.378086369E0,9.761159897E0,-7.972691655E-1,5.195417404E-1
3.380123177E0,9.773131371E0,-7.948749661E-1,5.171475410E-1
3.382192831E0,9.782708168E0,-7.972691655E-1,5.075707436E-1
3.384229139E0,9.799467087E0,-8.068459630E-1,5.171475410E-1
3.386230408E0,9.799467087E0,-7.948749661E-1,5.243301988E-1
3.388230985E0,9.811438560E0,-8.044517636E-1,5.243301988E-1
3.390300792E0,9.816226959E0,-7.972691655E-1,5.267243981E-1
3.392336177E0,9.828198433E0,-7.852981687E-1,5.291185975E-1
3.394338177E0,9.804255486E0,-7.996633649E-1,5.171475410E-1
3.396338677E0,9.787496567E0,-8.020575643E-1,5.195417404E-1
3.398408138E0,9.821015358E0,-7.805097699E-1,5.171475410E-1
3.400443831E0,9.823410034E0,-8.044517636E-1,5.003881454E-1
3.402512946E0,9.809044838E0,-7.948749661E-1,5.099649429E-1
3.404548562E0,9.813833237E0,-7.948749661E-1,5.147533417E-1
3.406552985E0,9.816226959E0,-7.900865674E-1,5.219359994E-1
3.408553600E0,9.811438560E0,-7.852981687E-1,5.195417404E-1
3.410623600E0,9.806650162E0,-7.876923680E-1,5.147533417E-1
3.412659331E0,9.813833237E0,-7.924807668E-1,5.123591423E-1
3.414659869E0,9.804255486E0,-8.044517636E-1,5.267243981E-1
3.416661215E0,9.811438560E0,-8.068459630E-1,5.315127969E-1
3.418731023E0,9.818621635E0,-8.068459630E-1,5.410895944E-1
3.420766561E0,9.811438560E0,-8.092401624E-1,5.386953950E-1
3.422835908E0,9.799467087E0,-8.044517636E-1,5.386953950E-1
3.424871677E0,9.804255486E0,-7.852981687E-1,5.339069963E-1
3.426905292E0,9.806650162E0,-8.068459630E-1,5.554547906E-1
3.428905677E0,9.809044838E0,-8.140285611E-1,5.578489900E-1
3.430975523E0,9.797073364E0,-8.092401624E-1,5.602431893E-1
3.433011100E0,9.818621635E0,-7.924807668E-1,5.578489900E-1
3.435012061E0,9.811438560E0,-7.805097699E-1,5.674257874E-1
3.437012523E0,9.787496567E0,-8.044517636E-1,5.650315881E-1
3.439081792E0,9.797073364E0,-8.092401624E-1,5.698199868E-1
3.441116908E0,9.789890289E0,-7.972691655E-1,5.650315881E-1
3.443186600E0,9.785101891E0,-7.972691655E-1,5.650315881E-1
3.445222100E0,9.751583099E0,-7.972691655E-1,5.770025849E-1
3.447226754E0,9.749189377E0,-8.020575643E-1,5.817909837E-1
3.449227484E0,9.753977776E0,-7.996633649E-1,5.793967843E-1
3.451297100E0,9.756371498E0,-7.876923680E-1,5.985504389E-1
3.453332946E0,9.761159897E0,-7.900865674E-1,6.009446383E-1
3.455366831E0,9.756371498E0,-7.876923680E-1,5.865794420E-1
3.457367754E0,9.742006302E0,-7.805097699E-1,5.817909837E-1
3.459437715E0,9.742006302E0,-7.757213712E-1,5.841852427E-1
3.461473369E0,9.737217903E0,-7.709329724E-1,5.865794420E-1
3.463543061E0,9.763554573E0,-7.733271718E-1,5.865794420E-1
3.465578715E0,9.756371498E0,-7.733271718E-1,5.937620401E-1
3.467612677E0,9.763554573E0,-7.781155705E-1,5.913678408E-1
3.469613561E0,9.782708168E0,-7.829039693E-1,5.937620401E-1
3.471683369E0,9.804255486E0,-7.852981687E-1,5.889736414E-1
3.473719100E0,9.789890289E0,-7.900865674E-1,5.865794420E-1
3.475721023E0,9.792284966E0,-8.092401624E-1,5.817909837E-1
3.477722484E0,9.801861763E0,-7.972691655E-1,5.746083856E-1
3.479792138E0,9.804255486E0,-8.020575643E-1,5.722141862E-1
3.481827523E0,9.809044838E0,-8.140285611E-1,5.602431893E-1
3.483897177E0,9.821015358E0,-8.068459630E-1,5.458779931E-1
3.485932177E0,9.818621635E0,-8.092401624E-1,5.482721925E-1
3.487936984E0,9.835380554E0,-8.068459630E-1,5.458779931E-1
3.489938023E0,9.823410034E0,-8.092401624E-1,5.243301988E-1
3.492007946E0,9.825803757E0,-8.116343617E-1,5.171475410E-1
3.494043638E0,9.835380554E0,-8.331822157E-1,5.099649429E-1
3.496044177E0,9.835380554E0,-8.403648138E-1,4.979939461E-1
3.498044561E0,9.832986832E0,-8.331822157E-1,4.932055473E-1
3.500114984E0,9.825803757E0,-8.236053586E-1,4.764461517E-1
3.502150869E0,9.864110947E0,-8.259995580E-1,4.644751251E-1
3.504220907E0,9.876082420E0,-8.283938169E-1,4.620809257E-1
3.506256869E0,9.859322548E0,-8.475474119E-1,4.716577232E-1
3.508282407E0,9.880870819E0,-8.451532125E-1,4.596867263E-1
3.510283215E0,9.897629738E0,-8.355764151E-1,4.525041282E-1
3.512352561E0,9.890447617E0,-8.451532125E-1,4.501099288E-1
3.514387869E0,9.897629738E0,-8.451532125E-1,4.525041282E-1
3.516390215E0,9.900024414E0,-8.595184088E-1,4.405331016E-1
3.518390792E0,9.897629738E0,-8.475474119E-1,4.309563041E-1
3.520460330E0,9.904812813E0,-8.475474119E-1,4.309563041E-1
3.522495869E0,9.904812813E0,-8.475474119E-1,4.285621047E-1
3.524565253E0,9.904812813E0,-8.499416113E-1,4.333505034E-1
3.526600369E0,9.907206535E0,-8.403648138E-1,4.453215301E-1
3.528604830E0,9.923966408E0,-8.331822157E-1,4.572925270E-1
3.530604792E0,9.909601212E0,-8.164227605E-1,4.716577232E-1
3.532674753E0,9.900024414E0,-8.331822157E-1,4.644751251E-1
3.534710099E0,9.907206535E0,-8.259995580E-1,4.596867263E-1
3.536710638E0,9.900024414E0,-8.116343617E-1,4.620809257E-1
3.538711369E0,9.892841339E0,-8.044517636E-1,4.692635238E-1
3.540781715E0,9.864110947E0,-8.116343617E-1,4.860229492E-1
3.542817638E0,9.861717224E0,-8.092401624E-1,4.860229492E-1
3.544888484E0,9.856928825E0,-8.044517636E-1,4.716577232E-1
3.546924715E0,9.859322548E0,-8.068459630E-1,4.644751251E-1
3.548939946E0,9.852140427E0,-8.044517636E-1,4.716577232E-1
3.550940792E0,9.813833237E0,-8.212111592E-1,4.812345505E-1
3.553010676E0,9.806650162E0,-8.044517636E-1,4.740519226E-1
3.555046138E0,9.806650162E0,-8.068459630E-1,4.788403511E-1
3.557048830E0,9.813833237E0,-8.068459630E-1,4.884171486E-1
3.559049676E0,9.801861763E0,-8.068459630E-1,4.932055473E-1
3.561119638E0,9.801861763E0,-8.068459630E-1,4.908113480E-1
3.563154715E0,9.804255486E0,-7.948749661E-1,4.979939461E-1
3.565224638E0,9.797073364E0,-8.092401624E-1,4.932055473E-1
3.567260253E0,9.794678688E0,-8.188169599E-1,4.979939461E-1
3.569266176E0,9.792284966E0,-8.236053586E-1,5.003881454E-1
3.571266561E0,9.775525093E0,-8.331822157E-1,5.027823448E-1
3.573336561E0,9.777919769E0,-8.307880163E-1,5.075707436E-1
3.575372253E0,9.792284966E0,-8.164227605E-1,5.291185975E-1
3.577406676E0,9.787496567E0,-8.212111592E-1,5.267243981E-1
3.579407599E0,9.780313492E0,-8.307880163E-1,5.339069963E-1
3.581477599E0,9.787496567E0,-8.427590132E-1,5.458779931E-1
3.583513522E0,9.797073364E0,-8.307880163E-1,5.458779931E-1
3.585583522E0,9.799467087E0,-8.283938169E-1,5.506663918E-1
3.587619445E0,9.809044838E0,-8.283938169E-1,5.506663918E-1
3.589652868E0,9.832986832E0,-8.307880163E-1,5.363011956E-1
3.591654138E0,9.835380554E0,-8.331822157E-1,5.291185975E-1
3.593723907E0,9.816226959E0,-8.259995580E-1,5.386953950E-1
3.595759599E0,9.825803757E0,-8.331822157E-1,5.506663918E-1
3.597761984E0,9.830592155E0,-8.427590132E-1,5.458779931E-1
3.599762945E0,9.823410034E0,-8.259995580E-1,5.554547906E-1
3.601832907E0,9.825803757E0,-8.451532125E-1,5.602431893E-1
3.603868984E0,9.828198433E0,-8.475474119E-1,5.434837937E-1
3.605939368E0,9.816226959E0,-8.523358107E-1,5.363011956E-1
3.607975368E0,9.813833237E0,-8.427590132E-1,5.578489900E-1
3.609980484E0,9.794678688E0,-8.307880163E-1,5.650315881E-1
3.611981599E0,9.792284966E0,-8.379706144E-1,5.626373887E-1
3.614052368E0,9.813833237E0,-8.403648138E-1,5.482721925E-1
3.616088715E0,9.813833237E0,-8.403648138E-1,5.482721925E-1
3.618089753E0,9.813833237E0,-8.427590132E-1,5.386953950E-1
3.620090753E0,9.813833237E0,-8.403648138E-1,5.458779931E-1
3.622160907E0,9.809044838E0,-8.523358107E-1,5.626373887E-1
3.624196907E0,9.801861763E0,-8.523358107E-1,5.578489900E-1
3.626266984E0,9.813833237E0,-8.643068075E-1,5.626373887E-1
3.628302407E0,9.789890289E0,-8.619126081E-1,5.793967843E-1
3.630335830E0,9.792284966E0,-8.667010069E-1,5.865794420E-1
3.632336561E0,9.777919769E0,-8.690952063E-1,5.985504389E-1
3.634406561E0,9.785101891E0,-8.547300100E-1,5.985504389E-1
3.636442407E0,9.794678688E0,-8.475474119E-1,5.985504389E-1
3.638445791E0,9.777919769E0,-8.619126081E-1,6.129156351E-1
3.640446830E0,9.780313492E0,-8.714894056E-1,6.177040339E-1
3.642517330E0,9.765948296E0,-8.738836050E-1,6.248866320E-1
3.644553407E0,9.763554573E0,-8.786720037E-1,6.272808313E-1
3.646623561E0,9.773131371E0,-8.667010069E-1,6.368576288E-1
3.648659599E0,9.763554573E0,-8.690952063E-1,6.488286853E-1
3.650667214E0,9.761159897E0,-8.475474119E-1,6.488286853E-1
3.652668445E0,9.744400978E0,-8.523358107E-1,6.512228847E-1
3.654738868E0,9.739612579E0,-8.571242094E-1,6.512228847E-1
3.656775445E0,9.761159897E0,-8.451532125E-1,6.488286853E-1
3.658776599E0,9.753977776E0,-8.667010069E-1,6.296750307E-1
3.660777907E0,9.744400978E0,-8.786720037E-1,6.320692301E-1
3.662848753E0,9.739612579E0,-8.690952063E-1,6.392518282E-1
3.664885176E0,9.758766174E0,-8.427590132E-1,6.320692301E-1
3.666956561E0,9.756371498E0,-8.403648138E-1,6.296750307E-1
3.668992753E0,9.753977776E0,-8.475474119E-1,6.272808313E-1
3.670994484E0,9.744400978E0,-8.499416113E-1,6.248866320E-1
3.672995714E0,9.744400978E0,-8.451532125E-1,6.296750307E-1
3.675066791E0,9.753977776E0,-8.379706144E-1,6.272808313E-1
3.677102791E0,9.768342972E0,-8.236053586E-1,6.296750307E-1
3.679105791E0,9.753977776E0,-8.403648138E-1,6.392518282E-1
3.681107176E0,9.753977776E0,-8.307880163E-1,6.440402865E-1
3.683177214E0,9.744400978E0,-8.212111592E-1,6.536170840E-1
3.685213830E0,9.742006302E0,-8.092401624E-1,6.584054828E-1
3.687284022E0,9.737217903E0,-8.020575643E-1,6.607996821E-1
3.689320868E0,9.753977776E0,-8.068459630E-1,6.607996821E-1
3.691327291E0,9.753977776E0,-8.140285611E-1,6.631938815E-1
3.693328137E0,9.756371498E0,-8.140285611E-1,6.607996821E-1
3.695398330E0,9.753977776E0,-8.140285611E-1,6.512228847E-1
3.697433753E0,9.782708168E0,-7.996633649E-1,6.416460276E-1
3.699433868E0,9.775525093E0,-7.900865674E-1,6.416460276E-1
3.701434522E0,9.782708168E0,-7.924807668E-1,6.272808313E-1
3.703504060E0,9.780313492E0,-8.068459630E-1,6.368576288E-1
3.705539214E0,9.775525093E0,-8.140285611E-1,6.368576288E-1
3.707608868E0,9.789890289E0,-8.307880163E-1,6.296750307E-1
3.709644445E0,9.806650162E0,-8.140285611E-1,6.153098345E-1
3.711645253E0,9.801861763E0,-8.092401624E-1,6.105214357E-1
3.713645714E0,9.787496567E0,-8.331822157E-1,6.057330370E-1
3.715715445E0,9.775525093E0,-8.283938169E-1,5.961562395E-1
3.717751406E0,9.777919769E0,-8.307880163E-1,5.865794420E-1
3.719753253E0,9.792284966E0,-8.427590132E-1,5.698199868E-1
3.721753983E0,9.806650162E0,-8.379706144E-1,5.602431893E-1
3.723824406E0,9.823410034E0,-8.451532125E-1,5.554547906E-1
3.725860868E0,9.801861763E0,-8.451532125E-1,5.386953950E-1
3.727931176E0,9.801861763E0,-8.547300100E-1,5.219359994E-1
3.729967368E0,9.809044838E0,-8.547300100E-1,5.171475410E-1
3.731972637E0,9.816226959E0,-8.738836050E-1,5.147533417E-1
3.733973676E0,9.825803757E0,-8.930372596E-1,5.003881454E-1
3.736043329E0,9.825803757E0,-8.930372596E-1,5.075707436E-1
3.738078599E0,9.832986832E0,-9.050082564E-1,4.908113480E-1
3.740112522E0,9.832986832E0,-9.026140571E-1,5.027823448E-1
3.742113329E0,9.828198433E0,-8.978256583E-1,4.979939461E-1
3.744183483E0,9.823410034E0,-9.097966552E-1,4.908113480E-1
3.746219637E0,9.830592155E0,-9.026140571E-1,5.051765442E-1
3.748289368E0,9.818621635E0,-9.121908545E-1,5.099649429E-1
3.750324791E0,9.816226959E0,-9.169792533E-1,5.003881454E-1
3.752350906E0,9.804255486E0,-9.145850539E-1,5.123591423E-1
3.754351599E0,9.794678688E0,-9.121908545E-1,5.315127969E-1
3.756421483E0,9.789890289E0,-9.050082564E-1,5.363011956E-1
3.758457406E0,9.801861763E0,-9.002198577E-1,5.434837937E-1
3.760458983E0,9.797073364E0,-8.906430602E-1,5.339069963E-1
3.762459945E0,9.794678688E0,-8.810662031E-1,5.386953950E-1
3.764529868E0,9.787496567E0,-8.810662031E-1,5.482721925E-1
3.766565599E0,9.782708168E0,-8.858546019E-1,5.650315881E-1
3.768635099E0,9.777919769E0,-8.906430602E-1,5.674257874E-1
3.770671060E0,9.797073364E0,-8.954314590E-1,5.889736414E-1
3.772675983E0,9.770736694E0,-8.810662031E-1,5.961562395E-1
3.774676675E0,9.763554573E0,-8.690952063E-1,5.961562395E-1
3.776746675E0,9.773131371E0,-8.667010069E-1,6.009446383E-1
3.778781637E0,9.782708168E0,-8.595184088E-1,6.009446383E-1
3.780781868E0,9.780313492E0,-8.595184088E-1,5.985504389E-1
3.782782022E0,9.777919769E0,-8.547300100E-1,5.961562395E-1
3.784851445E0,9.773131371E0,-8.690952063E-1,6.033388376E-1
3.786886945E0,9.777919769E0,-8.595184088E-1,6.009446383E-1
3.788955983E0,9.777919769E0,-8.571242094E-1,5.985504389E-1
3.790991599E0,9.785101891E0,-8.475474119E-1,5.985504389E-1
3.792992022E0,9.782708168E0,-8.379706144E-1,5.937620401E-1
3.794992675E0,9.775525093E0,-8.283938169E-1,5.913678408E-1
3.797062368E0,9.765948296E0,-8.212111592E-1,5.770025849E-1
3.799098368E0,9.777919769E0,-8.283938169E-1,5.722141862E-1
3.801101368E0,9.782708168E0,-8.140285611E-1,5.674257874E-1
3.803102406E0,9.780313492E0,-8.116343617E-1,5.554547906E-1
3.805172560E0,9.773131371E0,-8.044517636E-1,5.578489900E-1
3.807208214E0,9.763554573E0,-7.852981687E-1,5.482721925E-1
3.809278368E0,9.777919769E0,-7.900865674E-1,5.458779931E-1
3.811313752E0,9.780313492E0,-7.900865674E-1,5.458779931E-1
3.813319021E0,9.785101891E0,-8.020575643E-1,5.482721925E-1
3.815319675E0,9.797073364E0,-7.900865674E-1,5.482721925E-1
3.817389598E0,9.787496567E0,-7.805097699E-1,5.434837937E-1
3.819425598E0,9.792284966E0,-7.805097699E-1,5.410895944E-1
3.821426906E0,9.818621635E0,-7.805097699E-1,5.434837937E-1
3.823427368E0,9.828198433E0,-7.805097699E-1,5.482721925E-1
3.825497137E0,9.830592155E0,-7.805097699E-1,5.506663918E-1
3.827532752E0,9.832986832E0,-7.876923680E-1,5.578489900E-1
3.829602521E0,9.847352028E0,-7.757213712E-1,5.626373887E-1
3.831638368E0,9.852140427E0,-7.781155705E-1,5.698199868E-1
3.833671906E0,9.856928825E0,-7.900865674E-1,5.793967843E-1
3.835672406E0,9.847352028E0,-8.020575643E-1,5.913678408E-1
3.837742791E0,9.849745750E0,-7.924807668E-1,5.889736414E-1
3.839778214E0,9.852140427E0,-7.948749661E-1,5.985504389E-1
3.841788868E0,9.859322548E0,-7.900865674E-1,5.889736414E-1
3.843789098E0,9.854534149E0,-8.020575643E-1,5.913678408E-1
3.845858906E0,9.880870819E0,-7.924807668E-1,5.937620401E-1
3.847894060E0,9.876082420E0,-7.948749661E-1,5.913678408E-1
3.849963983E0,9.873687744E0,-7.924807668E-1,5.889736414E-1
3.851999598E0,9.868899345E0,-7.829039693E-1,5.937620401E-1
3.854004252E0,9.871294022E0,-7.852981687E-1,5.889736414E-1
3.856004944E0,9.871294022E0,-7.996633649E-1,5.865794420E-1
3.858074637E0,9.871294022E0,-7.948749661E-1,5.770025849E-1
3.860110175E0,9.876082420E0,-7.757213712E-1,5.746083856E-1
3.862144367E0,9.878476143E0,-7.685387731E-1,5.674257874E-1
3.864144983E0,9.873687744E0,-7.685387731E-1,5.793967843E-1
3.866214329E0,9.892841339E0,-7.757213712E-1,5.937620401E-1
3.868249906E0,9.895236015E0,-7.852981687E-1,5.961562395E-1
3.870319252E0,9.878476143E0,-8.044517636E-1,5.865794420E-1
3.872354329E0,9.868899345E0,-7.948749661E-1,6.033388376E-1
3.874354521E0,9.859322548E0,-7.972691655E-1,6.033388376E-1
3.876354867E0,9.847352028E0,-8.068459630E-1,6.081272364E-1
3.878423983E0,9.849745750E0,-8.092401624E-1,6.200982332E-1
3.880459175E0,9.835380554E0,-8.044517636E-1,6.320692301E-1
3.882460983E0,9.809044838E0,-8.044517636E-1,6.320692301E-1
3.884461329E0,9.804255486E0,-7.948749661E-1,6.416460276E-1
3.886530790E0,9.804255486E0,-7.876923680E-1,6.488286853E-1
3.888566483E0,9.794678688E0,-7.948749661E-1,6.584054828E-1
3.890636060E0,9.780313492E0,-7.972691655E-1,6.631938815E-1
3.892671790E0,9.763554573E0,-7.852981687E-1,6.584054828E-1
3.894675983E0,9.758766174E0,-7.852981687E-1,6.560112834E-1
3.896676290E0,9.746794701E0,-7.900865674E-1,6.584054828E-1
3.898745829E0,9.730035782E0,-7.829039693E-1,6.584054828E-1
3.900781175E0,9.739612579E0,-7.685387731E-1,6.631938815E-1
3.902783060E0,9.739612579E0,-7.829039693E-1,6.560112834E-1
3.904783175E0,9.737217903E0,-7.972691655E-1,6.536170840E-1
3.906852752E0,9.751583099E0,-7.948749661E-1,6.512228847E-1
3.908888252E0,9.746794701E0,-7.924807668E-1,6.464344859E-1
3.910957713E0,9.737217903E0,-7.805097699E-1,6.512228847E-1
3.912993136E0,9.749189377E0,-7.757213712E-1,6.488286853E-1
3.915026560E0,9.734824181E0,-7.733271718E-1,6.488286853E-1
3.917026906E0,9.713275909E0,-7.757213712E-1,6.464344859E-1
3.919096521E0,9.715670586E0,-7.733271718E-1,6.440402865E-1
3.921131598E0,9.732429504E0,-7.781155705E-1,6.368576288E-1
3.923132560E0,9.734824181E0,-7.852981687E-1,6.368576288E-1
3.925132944E0,9.737217903E0,-7.876923680E-1,6.296750307E-1
3.927202983E0,9.761159897E0,-7.924807668E-1,6.129156351E-1
3.929239021E0,9.763554573E0,-7.661445141E-1,6.248866320E-1
3.931308752E0,9.756371498E0,-7.733271718E-1,6.177040339E-1
3.933344367E0,9.758766174E0,-7.781155705E-1,6.057330370E-1
3.935349098E0,9.753977776E0,-7.661445141E-1,5.985504389E-1
3.937349521E0,9.753977776E0,-7.685387731E-1,6.153098345E-1
3.939418983E0,9.744400978E0,-7.661445141E-1,6.200982332E-1
3.941454252E0,9.734824181E0,-7.852981687E-1,6.153098345E-1
3.943487790E0,9.742006302E0,-7.829039693E-1,6.081272364E-1
3.945488444E0,9.751583099E0,-7.900865674E-1,6.081272364E-1
3.947558213E0,9.758766174E0,-7.852981687E-1,6.272808313E-1
3.949594213E0,9.756371498E0,-7.924807668E-1,6.296750307E-1
3.951664636E0,9.744400978E0,-7.972691655E-1,6.440402865E-1
3.953700675E0,9.756371498E0,-7.852981687E-1,6.392518282E-1
3.955715559E0,9.761159897E0,-7.757213712E-1,6.416460276E-1
3.957716482E0,9.763554573E0,-7.876923680E-1,6.368576288E-1
3.959786559E0,9.768342972E0,-7.948749661E-1,6.368576288E-1
3.961822098E0,9.785101891E0,-7.948749661E-1,6.560112834E-1
3.963824790E0,9.787496567E0,-7.876923680E-1,6.584054828E-1
3.965825136E0,9.785101891E0,-7.757213712E-1,6.536170840E-1
3.967895944E0,9.806650162E0,-7.757213712E-1,6.560112834E-1
3.969931752E0,9.801861763E0,-7.685387731E-1,6.631938815E-1
3.972002136E0,9.799467087E0,-7.805097699E-1,6.679822803E-1
3.974037752E0,9.792284966E0,-7.757213712E-1,6.871358752E-1
3.976045521E0,9.794678688E0,-7.757213712E-1,6.823474765E-1
3.978046329E0,9.806650162E0,-7.709329724E-1,6.943184733E-1
3.980116136E0,9.806650162E0,-7.517793179E-1,7.062895298E-1
3.982152059E0,9.811438560E0,-7.541735172E-1,7.015010715E-1
3.984153136E0,9.806650162E0,-7.398083210E-1,7.110779285E-1
3.986154252E0,9.801861763E0,-7.254431248E-1,7.086837292E-1
3.988224367E0,9.806650162E0,-7.182605267E-1,7.062895298E-1
3.990259944E0,9.806650162E0,-7.278373241E-1,7.086837292E-1
3.992329713E0,9.813833237E0,-7.278373241E-1,6.991068721E-1
3.994365367E0,9.809044838E0,-7.326257229E-1,7.015010715E-1
3.996390675E0,9.801861763E0,-7.278373241E-1,6.991068721E-1
3.998391444E0,9.811438560E0,-7.278373241E-1,6.823474765E-1
4.000461675E0,9.806650162E0,-7.206547260E-1,6.799532771E-1
4.002497482E0,9.792284966E0,-7.182605267E-1,6.847416759E-1
4.004500367E0,9.792284966E0,-7.182605267E-1,6.847416759E-1
4.006500905E0,9.799467087E0,-7.182605267E-1,6.847416759E-1
4.008570405E0,9.780313492E0,-7.206547260E-1,6.871358752E-1
4.010606021E0,9.777919769E0,-7.254431248E-1,6.871358752E-1
4.012675905E0,9.775525093E0,-7.230489254E-1,6.871358752E-1
4.014711636E0,9.785101891E0,-7.302315235E-1,6.799532771E-1
4.016715636E0,9.787496567E0,-7.350199223E-1,6.727706790E-1
4.018715905E0,9.782708168E0,-7.326257229E-1,6.727706790E-1
4.020784713E0,9.777919769E0,-7.062895298E-1,6.775590777E-1
4.022819828E0,9.785101891E0,-7.493851185E-1,6.584054828E-1
4.024820482E0,9.792284966E0,-7.493851185E-1,6.584054828E-1
4.026820328E0,9.806650162E0,-7.374141216E-1,6.607996821E-1
4.028889251E0,9.785101891E0,-7.374141216E-1,6.631938815E-1
4.030923636E0,9.782708168E0,-7.302315235E-1,6.631938815E-1
4.032992636E0,9.773131371E0,-7.541735172E-1,6.607996821E-1
4.035028174E0,9.773131371E0,-7.709329724E-1,6.607996821E-1
4.037027905E0,9.782708168E0,-7.661445141E-1,6.584054828E-1
4.039027828E0,9.785101891E0,-7.517793179E-1,6.560112834E-1
4.041096751E0,9.799467087E0,-7.733271718E-1,6.607996821E-1
4.043132174E0,9.785101891E0,-7.661445141E-1,6.560112834E-1
4.045134405E0,9.789890289E0,-7.661445141E-1,6.631938815E-1
4.047134405E0,9.804255486E0,-7.829039693E-1,6.631938815E-1
4.049204174E0,9.794678688E0,-8.068459630E-1,6.679822803E-1
4.051239213E0,9.804255486E0,-8.092401624E-1,6.631938815E-1
4.053308751E0,9.806650162E0,-8.188169599E-1,6.631938815E-1
4.055344174E0,9.804255486E0,-8.116343617E-1,6.895300746E-1
4.057349213E0,9.818621635E0,-8.259995580E-1,6.823474765E-1
4.059350097E0,9.823410034E0,-8.403648138E-1,6.655880809E-1
4.061419059E0,9.840168953E0,-8.475474119E-1,6.751648784E-1
4.063454790E0,9.835380554E0,-8.499416113E-1,6.799532771E-1
4.065455059E0,9.821015358E0,-8.499416113E-1,6.775590777E-1
4.067455444E0,9.821015358E0,-8.571242094E-1,6.703764796E-1
4.069525021E0,9.816226959E0,-8.499416113E-1,6.679822803E-1
4.071560059E0,9.811438560E0,-8.355764151E-1,6.607996821E-1
4.073629905E0,9.806650162E0,-8.259995580E-1,6.655880809E-1
4.075665328E0,9.804255486E0,-8.164227605E-1,6.607996821E-1
4.077699790E0,9.804255486E0,-8.283938169E-1,6.607996821E-1
4.079700405E0,9.801861763E0,-8.307880163E-1,6.607996821E-1
4.081770328E0,9.813833237E0,-8.331822157E-1,6.631938815E-1
4.083805944E0,9.806650162E0,-8.355764151E-1,6.607996821E-1
4.085810174E0,9.801861763E0,-8.236053586E-1,6.607996821E-1
4.087811020E0,9.806650162E0,-8.212111592E-1,6.584054828E-1
4.089880597E0,9.797073364E0,-8.164227605E-1,6.655880809E-1
4.091916020E0,9.792284966E0,-8.068459630E-1,6.607996821E-1
4.093985867E0,9.797073364E0,-8.068459630E-1,6.631938815E-1
4.096021559E0,9.797073364E0,-8.164227605E-1,6.703764796E-1
4.098026059E0,9.809044838E0,-8.259995580E-1,6.679822803E-1
4.100026213E0,9.818621635E0,-8.212111592E-1,6.631938815E-1
4.102095713E0,9.811438560E0,-8.140285611E-1,6.679822803E-1
4.104131290E0,9.797073364E0,-7.948749661E-1,6.799532771E-1
4.106131751E0,9.792284966E0,-7.924807668E-1,6.751648784E-1
4.108132597E0,9.789890289E0,-7.900865674E-1,6.799532771E-1
4.110202213E0,9.775525093E0,-7.876923680E-1,6.823474765E-1
4.112237790E0,9.787496567E0,-7.852981687E-1,6.775590777E-1
4.114307097E0,9.789890289E0,-7.852981687E-1,6.799532771E-1
4.116342405E0,9.804255486E0,-7.757213712E-1,6.823474765E-1
4.118376290E0,9.809044838E0,-7.733271718E-1,6.751648784E-1
4.120376828E0,9.799467087E0,-7.733271718E-1,6.847416759E-1
4.122446405E0,9.787496567E0,-7.661445141E-1,6.895300746E-1
4.124482020E0,9.797073364E0,-7.589619160E-1,6.967126727E-1
4.126484482E0,9.785101891E0,-7.733271718E-1,6.943184733E-1
4.128484713E0,9.797073364E0,-7.613561153E-1,6.919242740E-1
4.130554520E0,9.809044838E0,-7.709329724E-1,6.919242740E-1
4.132589636E0,9.809044838E0,-7.733271718E-1,6.991068721E-1
4.134658943E0,9.804255486E0,-7.685387731E-1,6.919242740E-1
4.136694328E0,9.811438560E0,-7.685387731E-1,6.919242740E-1
4.138698174E0,9.806650162E0,-7.781155705E-1,6.823474765E-1
4.140698866E0,9.816226959E0,-7.781155705E-1,6.679822803E-1
4.142767789E0,9.835380554E0,-7.709329724E-1,6.655880809E-1
4.144802520E0,9.832986832E0,-7.685387731E-1,6.727706790E-1
4.146803251E0,9.818621635E0,-7.637503147E-1,6.631938815E-1
4.148803097E0,9.828198433E0,-7.661445141E-1,6.655880809E-1
4.150872328E0,9.823410034E0,-7.757213712E-1,6.631938815E-1
