"Time (s)","Acceleration x (m/s^2)","Acceleration y (m/s^2)","Acceleration z (m/s^2)"
1.725988400E-2,-9.337387085E0,2.825157940E-1,6.536170840E-1
1.990263900E-2,-9.320627213E0,2.825157940E-1,6.248866320E-1
2.130000000E-2,-9.291896820E0,2.825157940E-1,5.386953950E-1
2.388426900E-2,-9.291896820E0,2.753331959E-1,4.022258818E-1
2.541953800E-2,-9.311050415E0,2.801215947E-1,3.543418646E-1
2.795946100E-2,-9.361329079E0,2.992752194E-1,2.609679997E-1
2.959969200E-2,-9.414001465E0,3.088520169E-1,2.346317619E-1
3.200400000E-2,-9.478644371E0,3.040636182E-1,2.418143749E-1
3.360030700E-2,-9.507374763E0,2.896983922E-1,2.920926213E-1
3.622284600E-2,-9.562441826E0,2.896983922E-1,3.040636182E-1
3.771003800E-2,-9.598354340E0,2.992752194E-1,2.968810201E-1
4.042910100E-2,-9.619902611E0,2.968810201E-1,3.160346150E-1
4.182223000E-2,-9.617507935E0,2.920926213E-1,3.878606856E-1
4.441673000E-2,-9.591172218E0,2.537853718E-1,4.501099288E-1
4.595146100E-2,-9.564835548E0,2.346317619E-1,4.788403511E-1
4.846207700E-2,-9.540893555E0,1.891419291E-1,4.692635238E-1
5.007265300E-2,-9.516951561E0,1.532289088E-1,4.405331016E-1
5.253865300E-2,-9.524134636E0,1.508347094E-1,4.237737060E-1
5.411819200E-2,-9.526528358E0,1.675941199E-1,3.711012602E-1
5.685648500E-2,-9.550470352E0,2.059013397E-1,3.232172430E-1
5.822988400E-2,-9.576807022E0,2.226607651E-1,3.208230138E-1
6.095883100E-2,-9.622296333E0,2.561795712E-1,3.327940404E-1
6.253700000E-2,-9.629479408E0,2.561795712E-1,3.543418646E-1
6.503756200E-2,-9.674968719E0,2.442085743E-1,3.256114423E-1
6.639696100E-2,-9.682151794E0,2.394201756E-1,2.968810201E-1
6.910471600E-2,-9.706093788E0,2.370259613E-1,2.873041928E-1
7.058180700E-2,-9.694122314E0,1.915361285E-1,2.513911724E-1
7.320663900E-2,-9.706093788E0,1.795651317E-1,2.442085743E-1
7.461388400E-2,-9.742006302E0,1.771709323E-1,2.178723514E-1
7.730806200E-2,-9.749189377E0,1.412578970E-1,1.867477298E-1
7.872603800E-2,-9.732429504E0,1.268926859E-1,1.843535304E-1
8.140940800E-2,-9.718064308E0,1.053448766E-1,2.154781520E-1
8.293007700E-2,-9.715670586E0,5.027823523E-2,2.346317619E-1
8.553737000E-2,-9.689333916E0,2.154781483E-2,2.011129409E-1
8.695084600E-2,-9.686940193E0,-9.576806799E-3,9.576806426E-2
8.963913900E-2,-9.679757118E0,-3.591302410E-2,-2.394201700E-3
9.109303800E-2,-9.612719536E0,-4.309562966E-2,-6.224924326E-2
9.373384600E-2,-9.572018623E0,-5.985504389E-2,-1.771709323E-1
9.514280700E-2,-9.452308655E0,-8.140286058E-2,-3.327940404E-1
9.784440800E-2,-9.342175484E0,-8.140286058E-2,-4.525041282E-1
9.927484600E-2,-9.265560150E0,-7.900865376E-2,-5.075707436E-1
1.019468310E-1,-9.076418877E0,-8.619125932E-2,-5.698199868E-1
1.033788070E-1,-8.678980827E0,-2.705447972E-1,-5.171475410E-1
1.058736530E-1,-8.377311707E0,-4.285621047E-1,-4.453215301E-1
1.074875000E-1,-8.142680168E0,-5.578489900E-1,-3.184288144E-1
1.099904230E-1,-8.169015884E0,-5.315127969E-1,-1.771709323E-1
1.116224610E-1,-8.226476669E0,-4.860229492E-1,-7.422025502E-2
1.142680240E-1,-8.386888504E0,-4.740519226E-1,1.364694983E-1
1.157287690E-1,-8.566453934E0,-4.955997467E-1,1.771709323E-1
1.183082300E-1,-8.916007042E0,-4.908113480E-1,3.280056417E-1
1.198133070E-1,-9.109937668E0,-4.477157295E-1,4.118026793E-1
1.224989850E-1,-9.500192642E0,-3.591302633E-1,5.650315881E-1
1.240068460E-1,-9.964667320E0,-2.322375625E-1,8.403648138E-1
1.264372300E-1,-1.023281765E1,-1.532289088E-1,9.935936928E-1
1.280619230E-1,-1.073799419E1,-7.182605099E-3,1.268926859E0
1.305495000E-1,-1.113303757E1,5.746084079E-2,1.405396342E0
1.322002300E-1,-1.128866100E1,8.619125932E-2,1.414973259E0
1.346497690E-1,-1.152089882E1,1.388636976E-1,1.333570361E0
1.362443840E-1,-1.168849277E1,1.556231081E-1,1.110909581E0
1.389314470E-1,-1.174834728E1,1.819593310E-1,9.864110947E-1
1.403604610E-1,-1.174355888E1,2.082955539E-1,7.302315235E-1
1.430339080E-1,-1.168849277E1,2.106897533E-1,4.070142806E-1
1.446640000E-1,-1.159272480E1,2.442085743E-1,8.858546615E-2
1.471653310E-1,-1.153286934E1,2.633621991E-1,-6.464344263E-2
1.485943070E-1,-1.141794777E1,3.088520169E-1,-3.639186621E-1
1.512672930E-1,-1.128866100E1,3.639186621E-1,-5.793967843E-1
1.527316530E-1,-1.122162342E1,3.926490843E-1,-6.536170840E-1
1.553692930E-1,-1.115697956E1,4.285621047E-1,-7.972691655E-1
1.568638460E-1,-1.108754826E1,5.051765442E-1,-8.978256583E-1
1.594709080E-1,-1.105881786E1,5.386953950E-1,-9.289502501E-1
1.609014610E-1,-1.103008747E1,6.105214357E-1,-9.720458984E-1
1.635728700E-1,-1.098220348E1,6.679822803E-1,-9.983820915E-1
1.650943840E-1,-1.093431950E1,7.015010715E-1,-1.012747288E0
1.676922540E-1,-1.090319443E1,7.493851185E-1,-1.017535686E0
1.691223840E-1,-1.084333992E1,7.589619160E-1,-9.983820915E-1
1.717942930E-1,-1.074996567E1,7.733271718E-1,-9.888052940E-1
1.732650760E-1,-1.071405220E1,7.661445141E-1,-9.744400978E-1
1.758964080E-1,-1.062546730E1,7.445967197E-1,-9.433154464E-1
1.773246920E-1,-1.054406452E1,7.015010715E-1,-9.193734527E-1
1.799980230E-1,-1.048660374E1,6.823474765E-1,-9.145850539E-1
1.814299230E-1,-1.034295177E1,6.512228847E-1,-8.954314590E-1
1.840994850E-1,-1.023760605E1,6.129156351E-1,-8.523358107E-1
1.855327690E-1,-1.017056847E1,5.913678408E-1,-8.188169599E-1
1.880433070E-1,-1.005085850E1,5.386953950E-1,-7.517793179E-1
1.896523070E-1,-9.931148529E0,5.099649429E-1,-6.751648784E-1
1.921382300E-1,-9.876082420E0,4.932055473E-1,-6.368576288E-1
1.937726150E-1,-9.777919769E0,4.692635238E-1,-5.530605912E-1
1.963178070E-1,-9.696516991E0,4.381389022E-1,-4.788403511E-1
1.980723840E-1,-9.617507935E0,4.213795066E-1,-4.285621047E-1
2.004402690E-1,-9.591172218E0,3.974374831E-1,-3.974374831E-1
2.019888070E-1,-9.528923035E0,3.830722570E-1,-3.303998411E-1
2.046179850E-1,-9.476250648E0,3.519476354E-1,-2.920926213E-1
2.060653840E-1,-9.464279175E0,3.399766386E-1,-2.801215947E-1
2.085750760E-1,-9.461885452E0,3.399766386E-1,-2.561795712E-1
2.101627300E-1,-9.464279175E0,3.160346150E-1,-2.250549644E-1
2.126702690E-1,-9.461885452E0,3.016694188E-1,-2.178723514E-1
2.143005380E-1,-9.459490776E0,2.657563984E-1,-1.939303428E-1
2.167551150E-1,-9.457097054E0,2.466027737E-1,-1.891419291E-1
2.183598840E-1,-9.473855972E0,2.442085743E-1,-1.819593310E-1
2.210382150E-1,-9.507374763E0,2.322375625E-1,-1.723825186E-1
2.224969230E-1,-9.521739960E0,2.250549644E-1,-1.604115069E-1
2.251411380E-1,-9.543288231E0,2.202665508E-1,-1.675941199E-1
2.267469610E-1,-9.550470352E0,1.795651317E-1,-1.771709323E-1
2.292237150E-1,-9.579200745E0,1.556231081E-1,-1.891419291E-1
2.306221150E-1,-9.610325813E0,1.484405100E-1,-1.891419291E-1
2.332912920E-1,-9.629479408E0,1.340752989E-1,-1.939303428E-1
2.348186920E-1,-9.674968719E0,1.244984865E-1,-2.035071403E-1
2.373936000E-1,-9.694122314E0,1.508347094E-1,-2.226607651E-1
2.388320760E-1,-9.710882187E0,1.604115069E-1,-2.322375625E-1
2.414969080E-1,-9.753977776E0,1.580173075E-1,-2.394201756E-1
2.430279610E-1,-9.785101891E0,1.364694983E-1,-2.537853718E-1
2.455993310E-1,-9.804255486E0,1.244984865E-1,-2.585737705E-1
2.471450380E-1,-9.816226959E0,1.173158810E-1,-2.609679997E-1
2.497273310E-1,-9.847352028E0,1.053448766E-1,-2.561795712E-1
2.511557300E-1,-9.852140427E0,1.173158810E-1,-2.585737705E-1
2.538292920E-1,-9.864110947E0,1.221042871E-1,-2.657563984E-1
2.552914610E-1,-9.890447617E0,1.316810995E-1,-2.849099934E-1
2.579309850E-1,-9.914389610E0,1.244984865E-1,-2.873041928E-1
2.593604230E-1,-9.921571732E0,1.197100878E-1,-2.849099934E-1
2.620324460E-1,-9.935936928E0,1.268926859E-1,-3.064578176E-1
2.634624990E-1,-9.947908401E0,1.244984865E-1,-3.088520169E-1
2.661348310E-1,-9.955090523E0,1.173158810E-1,-3.064578176E-1
2.677607300E-1,-9.967061996E0,1.173158810E-1,-2.920926213E-1
2.700746150E-1,-9.964667320E0,1.101332754E-1,-2.944868207E-1
2.717504990E-1,-9.964667320E0,1.077390760E-1,-2.896983922E-1
2.742662690E-1,-9.962273598E0,9.576806426E-2,-2.705447972E-1
2.763844080E-1,-9.955090523E0,8.858546615E-2,-2.585737705E-1
2.784523310E-1,-9.967061996E0,9.097966552E-2,-2.561795712E-1
2.798774230E-1,-9.976638794E0,7.900865376E-2,-2.418143749E-1
2.825328460E-1,-9.976638794E0,7.661445439E-2,-2.298433632E-1
2.839884990E-1,-9.986215591E0,6.224924326E-2,-2.035071403E-1
2.866552540E-1,-9.979032516E0,5.746084079E-2,-1.915361285E-1
2.881184230E-1,-9.959878922E0,5.027823523E-2,-1.843535304E-1
2.906021150E-1,-9.957485199E0,3.591302410E-2,-1.771709323E-1
2.922178460E-1,-9.950302124E0,3.112462163E-2,-1.675941199E-1
2.946997300E-1,-9.938331604E0,2.154781483E-2,-1.484405100E-1
2.963534610E-1,-9.911994934E0,-7.182605099E-3,-1.268926859E-1
2.988572690E-1,-9.916783333E0,-7.182605099E-3,-1.221042871E-1
3.004004230E-1,-9.914389610E0,-7.182605099E-3,-1.221042871E-1
3.030814070E-1,-9.909601212E0,-2.873042040E-2,-1.221042871E-1
3.045188070E-1,-9.897629738E0,-4.070143029E-2,-1.197100878E-1
3.071832920E-1,-9.854534149E0,-5.267243832E-2,-1.197100878E-1
3.087882300E-1,-9.847352028E0,-5.027823523E-2,-1.173158810E-1
3.112617920E-1,-9.835380554E0,-5.746084079E-2,-1.149216816E-1
3.127228070E-1,-9.832986832E0,-9.337386489E-2,-1.101332754E-1
3.153287150E-1,-9.832986832E0,-1.125274822E-1,-1.268926859E-1
3.173083840E-1,-9.797073364E0,-1.173158810E-1,-1.077390760E-1
3.194309070E-1,-9.789890289E0,-1.125274822E-1,-1.005564705E-1
3.210823460E-1,-9.761159897E0,-1.149216816E-1,-8.140286058E-2
3.235326770E-1,-9.739612579E0,-1.244984865E-1,-7.422025502E-2
3.249831920E-1,-9.732429504E0,-1.340752989E-1,-7.422025502E-2
3.276352920E-1,-9.730035782E0,-1.460463107E-1,-8.140286058E-2
3.292122690E-1,-9.710882187E0,-1.508347094E-1,-8.619125932E-2
3.317646770E-1,-9.710882187E0,-1.508347094E-1,-9.097966552E-2
3.332926530E-1,-9.708487511E0,-1.556231081E-1,-8.858546615E-2
3.358678690E-1,-9.715670586E0,-1.843535304E-1,-1.029506698E-1
3.373466920E-1,-9.710882187E0,-1.771709323E-1,-1.149216816E-1
3.399706000E-1,-9.706093788E0,-1.699883193E-1,-1.364694983E-1
3.413931150E-1,-9.715670586E0,-1.460463107E-1,-1.556231081E-1
3.440733300E-1,-9.710882187E0,-1.484405100E-1,-1.939303428E-1
3.454992690E-1,-9.703699112E0,-1.484405100E-1,-2.059013397E-1
3.481767150E-1,-9.694122314E0,-1.556231081E-1,-2.298433632E-1
3.496244610E-1,-9.660603523E0,-1.508347094E-1,-2.657563984E-1
3.521674610E-1,-9.658209801E0,-1.532289088E-1,-2.801215947E-1
3.537300380E-1,-9.662998199E0,-1.268926859E-1,-3.064578176E-1
3.562460760E-1,-9.660603523E0,-1.292868853E-1,-3.447650373E-1
3.580973460E-1,-9.653421402E0,-1.197100878E-1,-3.591302633E-1
3.604974070E-1,-9.648633003E0,-1.101332754E-1,-3.806780577E-1
3.619938840E-1,-9.643844604E0,-9.097966552E-2,-3.902548850E-1
3.645643840E-1,-9.648633003E0,-8.858546615E-2,-3.950432837E-1
3.660873070E-1,-9.655815125E0,-7.900865376E-2,-4.285621047E-1
3.687274460E-1,-9.672574997E0,-5.746084079E-2,-4.285621047E-1
3.702495380E-1,-9.658209801E0,-3.351882473E-2,-4.501099288E-1
3.726710760E-1,-9.665391922E0,-2.873042040E-2,-4.501099288E-1
3.742891920E-1,-9.686940193E0,7.182605099E-3,-4.548983276E-1
3.767850760E-1,-9.679757118E0,3.112462163E-2,-4.548983276E-1
3.784076530E-1,-9.679757118E0,4.309562966E-2,-4.477157295E-1
3.808677690E-1,-9.696516991E0,6.224924326E-2,-4.548983276E-1
3.824802690E-1,-9.708487511E0,8.858546615E-2,-4.596867263E-1
3.851592150E-1,-9.703699112E0,8.858546615E-2,-4.668693244E-1
3.865795760E-1,-9.715670586E0,9.816227108E-2,-4.692635238E-1
3.892635610E-1,-9.727641106E0,1.316810995E-1,-4.644751251E-1
3.908679610E-1,-9.739612579E0,1.508347094E-1,-4.620809257E-1
3.933405610E-1,-9.746794701E0,1.556231081E-1,-4.620809257E-1
3.947656920E-1,-9.751583099E0,1.891419291E-1,-4.620809257E-1
3.974083690E-1,-9.761159897E0,2.059013397E-1,-4.620809257E-1
3.989111920E-1,-9.763554573E0,2.154781520E-1,-4.429273009E-1
4.015119070E-1,-9.775525093E0,2.418143749E-1,-4.525041282E-1
4.030004990E-1,-9.785101891E0,2.633621991E-1,-4.525041282E-1
4.056155220E-1,-9.780313492E0,2.681505978E-1,-4.572925270E-1
4.071560380E-1,-9.806650162E0,3.088520169E-1,-4.644751251E-1
4.097188690E-1,-9.832986832E0,3.112462163E-1,-4.596867263E-1
4.114183070E-1,-9.844957352E0,3.064578176E-1,-4.668693244E-1
4.138479450E-1,-9.856928825E0,3.327940404E-1,-4.812345505E-1
4.152941920E-1,-9.883264542E0,3.447650373E-1,-4.979939461E-1
4.179508300E-1,-9.890447617E0,3.471592367E-1,-4.955997467E-1
4.194894610E-1,-9.907206535E0,3.663128614E-1,-5.099649429E-1
4.220537150E-1,-9.923966408E0,3.758896589E-1,-5.339069963E-1
4.235336150E-1,-9.921571732E0,3.830722570E-1,-5.339069963E-1
4.261560610E-1,-9.923966408E0,3.950432837E-1,-5.506663918E-1
4.277689220E-1,-9.945513725E0,3.854664862E-1,-5.578489900E-1
4.302581760E-1,-9.964667320E0,3.878606856E-1,-5.841852427E-1
4.316883840E-1,-9.993397713E0,3.758896589E-1,-6.033388376E-1
4.341911150E-1,-1.001733971E1,3.902548850E-1,-6.129156351E-1
4.358071150E-1,-1.002691650E1,3.687070608E-1,-6.320692301E-1
4.383059610E-1,-1.003649330E1,3.639186621E-1,-6.392518282E-1
4.399492300E-1,-1.005325317E1,3.782838583E-1,-6.488286853E-1
4.425767920E-1,-1.006043530E1,3.711012602E-1,-6.584054828E-1
4.440262300E-1,-1.006282997E1,3.663128614E-1,-6.727706790E-1
4.466729220E-1,-1.007958889E1,3.615244627E-1,-6.871358752E-1
4.481741920E-1,-1.009634876E1,3.639186621E-1,-7.134721279E-1
4.507815220E-1,-1.009634876E1,3.543418646E-1,-7.302315235E-1
4.522255760E-1,-1.008916569E1,3.303998411E-1,-7.493851185E-1
4.547798450E-1,-1.009634876E1,3.160346150E-1,-7.541735172E-1
4.563354610E-1,-1.011071396E1,3.016694188E-1,-7.613561153E-1
4.588264990E-1,-1.011310768E1,3.136404157E-1,-7.685387731E-1
4.604783840E-1,-1.011550236E1,3.256114423E-1,-7.733271718E-1
4.629262690E-1,-1.013704967E1,3.160346150E-1,-7.900865674E-1
4.645279990E-1,-1.014183807E1,3.112462163E-1,-7.924807668E-1
4.672064070E-1,-1.012986755E1,3.136404157E-1,-8.092401624E-1
4.686466530E-1,-1.011789608E1,3.447650373E-1,-8.164227605E-1
4.713084450E-1,-1.011071396E1,3.375824392E-1,-8.140285611E-1
4.729124990E-1,-1.010592556E1,3.303998411E-1,-8.164227605E-1
4.753841760E-1,-1.008916569E1,3.232172430E-1,-8.020575643E-1
4.767778840E-1,-1.007719517E1,3.232172430E-1,-7.924807668E-1
4.794514840E-1,-1.005564690E1,3.232172430E-1,-7.733271718E-1
4.809108070E-1,-1.003170490E1,3.280056417E-1,-7.517793179E-1
4.835535990E-1,-1.000536919E1,3.280056417E-1,-7.398083210E-1
4.850084220E-1,-9.998186111E0,3.256114423E-1,-7.326257229E-1
4.876560990E-1,-9.979032516E0,3.375824392E-1,-7.182605267E-1
4.891613070E-1,-9.967061996E0,3.327940404E-1,-6.823474765E-1
4.917586370E-1,-9.952696800E0,3.303998411E-1,-6.727706790E-1
4.933222300E-1,-9.923966408E0,3.280056417E-1,-6.392518282E-1
4.958883680E-1,-9.919178009E0,3.256114423E-1,-6.177040339E-1
4.973242300E-1,-9.914389610E0,3.280056417E-1,-6.033388376E-1
4.999914840E-1,-9.897629738E0,3.375824392E-1,-5.674257874E-1
5.014527690E-1,-9.878476143E0,3.327940404E-1,-5.291185975E-1
5.040946760E-1,-9.876082420E0,3.232172430E-1,-5.195417404E-1
5.055278450E-1,-9.868899345E0,3.112462163E-1,-4.932055473E-1
5.081978680E-1,-9.832986832E0,3.232172430E-1,-4.836287498E-1
5.096350760E-1,-9.825803757E0,3.136404157E-1,-4.740519226E-1
5.123012530E-1,-9.816226959E0,2.801215947E-1,-4.501099288E-1
5.137471150E-1,-9.787496567E0,2.681505978E-1,-4.285621047E-1
5.162524220E-1,-9.775525093E0,2.442085743E-1,-4.141969085E-1
5.178361530E-1,-9.758766174E0,2.466027737E-1,-4.022258818E-1
5.203740760E-1,-9.744400978E0,2.561795712E-1,-3.830722570E-1
5.221203840E-1,-9.725247383E0,2.513911724E-1,-3.734954596E-1
5.245587300E-1,-9.718064308E0,2.418143749E-1,-3.758896589E-1
5.260876150E-1,-9.720458984E0,2.250549644E-1,-3.615244627E-1
5.286714990E-1,-9.725247383E0,2.059013397E-1,-3.543418646E-1
5.302459990E-1,-9.727641106E0,1.915361285E-1,-3.495534360E-1
5.328301370E-1,-9.715670586E0,1.771709323E-1,-3.471592367E-1
5.343775380E-1,-9.718064308E0,1.723825186E-1,-3.375824392E-1
5.367671530E-1,-9.708487511E0,1.651999205E-1,-3.232172430E-1
5.383846530E-1,-9.701305389E0,1.532289088E-1,-3.208230138E-1
5.408743450E-1,-9.708487511E0,1.316810995E-1,-3.280056417E-1
5.425743070E-1,-9.722852707E0,1.460463107E-1,-3.112462163E-1
5.451522140E-1,-9.722852707E0,1.508347094E-1,-3.088520169E-1
5.465949990E-1,-9.725247383E0,1.268926859E-1,-3.064578176E-1
5.492551760E-1,-9.730035782E0,1.292868853E-1,-2.992752194E-1
5.507020380E-1,-9.727641106E0,1.412578970E-1,-2.992752194E-1
5.533579450E-1,-9.715670586E0,1.173158810E-1,-2.729389966E-1
5.549800380E-1,-9.706093788E0,1.244984865E-1,-2.633621991E-1
5.574373300E-1,-9.713275909E0,1.221042871E-1,-2.609679997E-1
5.589181530E-1,-9.722852707E0,1.244984865E-1,-2.657563984E-1
5.615039830E-1,-9.734824181E0,1.197100878E-1,-2.561795712E-1
5.630050380E-1,-9.734824181E0,1.197100878E-1,-2.466027737E-1
5.656063300E-1,-9.744400978E0,1.077390760E-1,-2.418143749E-1
5.670412300E-1,-9.751583099E0,1.316810995E-1,-2.442085743E-1
5.697089830E-1,-9.770736694E0,1.268926859E-1,-2.394201756E-1
5.711508450E-1,-9.763554573E0,1.173158810E-1,-2.442085743E-1
5.738109830E-1,-9.773131371E0,1.005564705E-1,-2.513911724E-1
5.753388070E-1,-9.787496567E0,1.053448766E-1,-2.825157940E-1
5.779388290E-1,-9.799467087E0,9.337386489E-2,-2.968810201E-1
5.794288840E-1,-9.828198433E0,8.140286058E-2,-3.327940404E-1
5.820411760E-1,-9.832986832E0,8.379705995E-2,-3.639186621E-1
5.835325380E-1,-9.830592155E0,8.140286058E-2,-3.758896589E-1
5.861439450E-1,-9.854534149E0,7.182604820E-2,-4.118026793E-1
5.877259610E-1,-9.900024414E0,6.703764945E-2,-4.429273009E-1
5.902465220E-1,-9.923966408E0,6.703764945E-2,-4.620809257E-1
5.919818450E-1,-9.945513725E0,5.027823523E-2,-5.027823448E-1
5.943491760E-1,-9.962273598E0,6.224924326E-2,-5.554547906E-1
5.958612680E-1,-9.998186111E0,6.224924326E-2,-5.961562395E-1
5.982886530E-1,-1.002691650E1,4.309562966E-2,-6.177040339E-1
5.999235380E-1,-1.006761837E1,2.154781483E-2,-6.536170840E-1
6.025667910E-1,-1.010831928E1,9.576806799E-3,-7.015010715E-1
6.040648070E-1,-1.013704967E1,-2.394201700E-3,-7.230489254E-1
6.066698290E-1,-1.019690514E1,-4.788403399E-3,-7.829039693E-1
6.081725380E-1,-1.024000072E1,-1.675941236E-2,-8.499416113E-1
6.107252300E-1,-1.028070164E1,-2.873042040E-2,-8.834604025E-1
6.123601150E-1,-1.032619190E1,-2.394201607E-2,-9.337386489E-1
6.148997910E-1,-1.034774017E1,-2.394201607E-2,-9.816226959E-1
6.164443450E-1,-1.035492229E1,-2.873042040E-2,-1.005564690E0
6.188892300E-1,-1.037168217E1,-1.197100803E-2,-1.051054597E0
6.205469610E-1,-1.037886429E1,-1.436521020E-2,-1.098938584E0
6.229651530E-1,-1.038604736E1,-1.436521020E-2,-1.144428372E0
6.247553840E-1,-1.039562416E1,-2.154781483E-2,-1.165976286E0
6.271824610E-1,-1.042674828E1,-1.197100803E-2,-1.211466074E0
6.288358840E-1,-1.046984386E1,-1.675941236E-2,-1.252167463E0
6.313273680E-1,-1.047463226E1,-9.576806799E-3,-1.268926859E0
6.327791150E-1,-1.051054573E1,1.436521020E-2,-1.302445769E0
6.354294450E-1,-1.053927612E1,7.182605099E-3,-1.302445769E0
6.370821150E-1,-1.055364132E1,2.394201700E-3,-1.300051570E0
6.395071370E-1,-1.056561184E1,4.788403399E-3,-1.316810966E0
6.409381910E-1,-1.057997704E1,3.351882473E-2,-1.300051570E0
6.435742910E-1,-1.058955383E1,5.985504389E-2,-1.295263171E0
6.451538450E-1,-1.061828423E1,9.097966552E-2,-1.283292055E0
6.476768290E-1,-1.059913063E1,7.422025502E-2,-1.249773264E0
6.492151530E-1,-1.058237171E1,6.943184882E-2,-1.233013868E0
6.517785600E-1,-1.054406452E1,7.661445439E-2,-1.197100878E0
6.533773840E-1,-1.052012253E1,6.464344263E-2,-1.149216771E0
6.558807140E-1,-1.048899746E1,6.224924326E-2,-1.108515382E0
6.574419610E-1,-1.046984386E1,5.985504389E-2,-1.091755986E0
6.600080210E-1,-1.044590187E1,5.746084079E-2,-1.043871999E0
6.616993070E-1,-1.039562416E1,5.267243832E-2,-1.017535686E0
6.641093290E-1,-1.037407589E1,2.873042040E-2,-9.935936928E-1
6.655775760E-1,-1.034295177E1,-4.788403399E-3,-9.576807022E-1
6.682110600E-1,-1.030224991E1,-1.915361360E-2,-8.930372596E-1
6.696930380E-1,-1.027591324E1,-4.070143029E-2,-8.690952063E-1
6.723128290E-1,-1.022563553E1,-5.027823523E-2,-7.996633649E-1
6.737030380E-1,-1.017535686E1,-8.140286058E-2,-7.350199223E-1
6.764151370E-1,-1.014902115E1,-1.029506698E-1,-7.086837292E-1
6.780670760E-1,-1.008916569E1,-1.436520964E-1,-6.584054828E-1
6.803731150E-1,-1.003409958E1,-1.771709323E-1,-6.057330370E-1
6.819961910E-1,-9.979032516E0,-1.963245422E-1,-5.482721925E-1
6.845051530E-1,-9.943120003E0,-2.154781520E-1,-5.267243981E-1
6.863499610E-1,-9.868899345E0,-2.657563984E-1,-4.955997467E-1
6.886579220E-1,-9.811438560E0,-3.040636182E-1,-4.764461517E-1
6.901674610E-1,-9.780313492E0,-3.112462163E-1,-4.596867263E-1
6.928191910E-1,-9.742006302E0,-3.423708379E-1,-4.333505034E-1
6.943846150E-1,-9.686940193E0,-3.567360640E-1,-4.070142806E-1
6.969366750E-1,-9.665391922E0,-3.830722570E-1,-3.926490843E-1
6.985131910E-1,-9.610325813E0,-4.357447028E-1,-3.830722570E-1
7.008982300E-1,-9.545681953E0,-4.525041282E-1,-3.687070608E-1
7.027138070E-1,-9.524134636E0,-4.596867263E-1,-3.567360640E-1
7.049832680E-1,-9.473855972E0,-4.908113480E-1,-3.423708379E-1
7.067946910E-1,-9.433155060E0,-5.219359994E-1,-3.471592367E-1
7.092452680E-1,-9.385271072E0,-5.410895944E-1,-3.567360640E-1
7.108196910E-1,-9.363722801E0,-5.530605912E-1,-3.615244627E-1
7.133574060E-1,-9.342175484E0,-5.746083856E-1,-3.591302633E-1
7.147883450E-1,-9.306262016E0,-5.770025849E-1,-3.375824392E-1
7.174591370E-1,-9.306262016E0,-5.985504389E-1,-3.280056417E-1
7.190816530E-1,-9.308655739E0,-6.344634295E-1,-3.208230138E-1
7.215358670E-1,-9.315838814E0,-6.536170840E-1,-3.280056417E-1
7.229411150E-1,-9.320627213E0,-6.536170840E-1,-3.327940404E-1
7.256026750E-1,-9.320627213E0,-6.440402865E-1,-3.375824392E-1
7.273025760E-1,-9.325415611E0,-6.655880809E-1,-3.519476354E-1
7.297038670E-1,-9.337387085E0,-6.560112834E-1,-3.591302633E-1
7.313717300E-1,-9.349357605E0,-6.751648784E-1,-3.782838583E-1
7.338051370E-1,-9.366117477E0,-6.847416759E-1,-3.758896589E-1
7.353433450E-1,-9.390059471E0,-6.727706790E-1,-3.734954596E-1
7.379059440E-1,-9.418789864E0,-6.751648784E-1,-3.902548850E-1
7.394556530E-1,-9.433155060E0,-6.847416759E-1,-3.950432837E-1
7.420329060E-1,-9.457097054E0,-6.895300746E-1,-4.094084799E-1
7.437303070E-1,-9.478644371E0,-6.847416759E-1,-4.165911078E-1
7.461338290E-1,-9.516951561E0,-6.655880809E-1,-4.213795066E-1
7.477088840E-1,-9.560047150E0,-6.560112834E-1,-4.525041282E-1
7.502352900E-1,-9.583989143E0,-6.512228847E-1,-4.572925270E-1
7.517012300E-1,-9.624691010E0,-6.177040339E-1,-4.644751251E-1
7.543365980E-1,-9.698910713E0,-5.865794420E-1,-4.596867263E-1
7.558274220E-1,-9.722852707E0,-5.817909837E-1,-4.596867263E-1
7.584377900E-1,-9.761159897E0,-5.770025849E-1,-4.692635238E-1
7.598956140E-1,-9.806650162E0,-5.650315881E-1,-4.716577232E-1
7.624097680E-1,-9.832986832E0,-5.554547906E-1,-4.740519226E-1
7.640004220E-1,-9.880870819E0,-5.291185975E-1,-4.860229492E-1
7.665096140E-1,-9.919178009E0,-5.075707436E-1,-4.836287498E-1
7.681398840E-1,-9.945513725E0,-4.572925270E-1,-4.979939461E-1
7.707540590E-1,-9.967061996E0,-4.477157295E-1,-4.932055473E-1
7.722403450E-1,-1.000297451E1,-4.333505034E-1,-5.099649429E-1
7.748560590E-1,-1.004846478E1,-3.950432837E-1,-5.219359994E-1
7.764888070E-1,-1.006761837E1,-3.782838583E-1,-5.291185975E-1
7.789573290E-1,-1.011310768E1,-3.734954596E-1,-5.195417404E-1
7.803917300E-1,-1.013465595E1,-3.471592367E-1,-5.171475410E-1
7.830101910E-1,-1.014183807E1,-3.423708379E-1,-5.123591423E-1
7.846093840E-1,-1.015859795E1,-3.351882398E-1,-5.075707436E-1
7.871769830E-1,-1.018493366E1,-3.375824392E-1,-5.051765442E-1
7.886594990E-1,-1.020408726E1,-3.327940404E-1,-4.932055473E-1
7.911160380E-1,-1.021605873E1,-3.136404157E-1,-4.788403511E-1
7.927324990E-1,-1.022084713E1,-2.849099934E-1,-4.620809257E-1
7.953800980E-1,-1.023281765E1,-2.801215947E-1,-4.572925270E-1
7.968297300E-1,-1.022802925E1,-2.801215947E-1,-4.525041282E-1
7.994817130E-1,-1.021127033E1,-2.992752194E-1,-4.381389022E-1
8.012400380E-1,-1.020169353E1,-2.968810201E-1,-4.165911078E-1
8.035586750E-1,-1.019211674E1,-3.064578176E-1,-3.950432837E-1
8.050406530E-1,-1.021127033E1,-3.160346150E-1,-3.687070608E-1
8.076256750E-1,-1.019690514E1,-3.351882398E-1,-3.495534360E-1
8.093043840E-1,-1.018014526E1,-3.495534360E-1,-3.280056417E-1
8.117276750E-1,-1.016099167E1,-3.758896589E-1,-3.040636182E-1
8.131924990E-1,-1.016099167E1,-4.070142806E-1,-2.825157940E-1
8.158298670E-1,-1.016099167E1,-4.477157295E-1,-2.585737705E-1
8.177031530E-1,-1.018493366E1,-5.578489900E-1,-1.364694983E-1
8.199328290E-1,-1.025675964E1,-6.488286853E-1,-3.830722719E-2
8.218169990E-1,-1.029267311E1,-6.655880809E-1,-5.027823523E-2
8.240637900E-1,-1.034295177E1,-6.655880809E-1,-6.703764945E-2
8.255832300E-1,-1.041238308E1,-7.206547260E-1,-9.576806799E-3
8.281669050E-1,-1.042674828E1,-7.517793179E-1,4.070143029E-2
8.297043840E-1,-1.040759468E1,-7.422025204E-1,5.027823523E-2
8.322696750E-1,-1.039083576E1,-7.637503147E-1,1.364694983E-1
8.337216140E-1,-1.042914295E1,-7.781155705E-1,9.097966552E-2
8.363718280E-1,-1.042914295E1,-7.733271718E-1,2.394201607E-2
8.378187300E-1,-1.043871975E1,-7.709329724E-1,-1.556231081E-1
8.404739050E-1,-1.052491093E1,-8.834604025E-1,-2.657563984E-1
8.419265760E-1,-1.062786102E1,-9.481038451E-1,-3.064578176E-1
8.445884820E-1,-1.085770512E1,-1.031900883E0,-3.782838583E-1
8.460370380E-1,-1.093431950E1,-1.074996591E0,-3.591302633E-1
8.485617680E-1,-1.091037750E1,-1.082179189E0,-3.327940404E-1
8.501839990E-1,-1.076672459E1,-1.096544385E0,-2.418143749E-1
8.527937510E-1,-1.060870743E1,-1.113303781E0,-1.891419291E-1
8.544604220E-1,-1.048660374E1,-1.110909581E0,-1.651999205E-1
8.568734220E-1,-1.040998936E1,-1.098938584E0,-1.747767180E-1
8.583626910E-1,-1.019690514E1,-1.048660398E0,-2.082955539E-1
8.610250980E-1,-9.950302124E0,-9.864110947E-1,-2.561795712E-1
8.628374610E-1,-9.825803757E0,-9.361328483E-1,-3.112462163E-1
8.650787300E-1,-9.610325813E0,-8.188169599E-1,-4.405331016E-1
8.665861530E-1,-9.402029991E0,-7.062895298E-1,-6.129156351E-1
8.690938840E-1,-9.313444138E0,-6.536170840E-1,-7.062895298E-1
8.707286140E-1,-9.143456459E0,-5.602431893E-1,-8.954314590E-1
8.731865370E-1,-9.028534889E0,-5.051765442E-1,-1.089361787E0
8.747953450E-1,-8.992621422E0,-4.788403511E-1,-1.175553083E0
8.774525210E-1,-8.959102631E0,-4.189853072E-1,-1.357512355E0
8.789217300E-1,-8.968679428E0,-3.615244627E-1,-1.563413739E0
8.815540590E-1,-9.042900085E0,-3.280056417E-1,-1.738190413E0
8.831669220E-1,-9.105149269E0,-3.064578176E-1,-1.810016513E0
8.856232130E-1,-9.205705643E0,-2.609679997E-1,-1.910573006E0
8.871153070E-1,-9.311050415E0,-2.274491638E-1,-1.953668594E0
8.896896740E-1,-9.370905876E0,-2.082955539E-1,-1.939303398E0
8.911804990E-1,-9.493009567E0,-1.604115069E-1,-1.848323703E0
8.937918670E-1,-9.579200745E0,-1.197100878E-1,-1.793257117E0
8.952829220E-1,-9.605537415E0,-9.337386489E-2,-1.778891921E0
8.978941360E-1,-9.648633003E0,-4.309562966E-2,-1.711854219E0
8.995218840E-1,-9.653421402E0,3.830722719E-2,-1.623268723E0
9.019961740E-1,-9.655815125E0,1.005564705E-1,-1.544260144E0
9.040864990E-1,-9.639056206E0,2.178723514E-1,-1.359906554E0
9.061174820E-1,-9.579200745E0,3.711012602E-1,-1.170764685E0
9.076678070E-1,-9.545681953E0,4.572925270E-1,-1.065419793E0
9.102200200E-1,-9.449913979E0,6.033388376E-1,-8.619126081E-1
9.119559610E-1,-9.354146004E0,7.469909191E-1,-6.655880809E-1
9.143227900E-1,-9.260771751E0,8.714894056E-1,-4.572925270E-1
9.158397680E-1,-9.227252960E0,9.481038451E-1,-3.543418646E-1
9.184251740E-1,-9.196128845E0,1.091755986E0,-1.268926859E-1
9.198521140E-1,-9.193734169E0,1.197100878E0,9.576806426E-2
9.225273670E-1,-9.215282440E0,1.254561663E0,2.035071403E-1
9.239742300E-1,-9.263166428E0,1.395819545E0,4.189853072E-1
9.266095370E-1,-9.363722801E0,1.503558636E0,5.865794420E-1
9.281422300E-1,-9.418789864E0,1.553836942E0,6.703764796E-1
9.305866530E-1,-9.540893555E0,1.628057122E0,8.212111592E-1
9.323206140E-1,-9.662998199E0,1.687912226E0,9.361328483E-1
9.348379820E-1,-9.722852707E0,1.716642618E0,9.768342972E-1
9.364746530E-1,-9.821015358E0,1.740584612E0,1.027112484E0
9.388816910E-1,-9.909601212E0,1.742978811E0,1.017535686E0
9.405535370E-1,-1.001494598E1,1.692700624E0,9.409212470E-1
9.430412130E-1,-1.004607010E1,1.659181833E0,8.762778044E-1
9.446213840E-1,-1.010592556E1,1.561019540E0,7.374141216E-1
9.470109610E-1,-1.016578007E1,1.491587639E0,5.482721925E-1
9.487463070E-1,-1.019211674E1,1.462857246E0,4.381389022E-1
9.512403840E-1,-1.025197124E1,1.381454349E0,2.082955539E-1
9.529447680E-1,-1.031182671E1,1.271321058E0,-5.267243832E-2
9.551775370E-1,-1.034295177E1,1.213860273E0,-1.891419291E-1
9.567964600E-1,-1.037168217E1,1.108515382E0,-4.309563041E-1
9.594599430E-1,-1.035492229E1,1.007958889E0,-5.482721925E-1
9.612199220E-1,-1.032619190E1,9.552865028E-1,-6.009446383E-1
9.635636740E-1,-1.028788471E1,8.786720037E-1,-8.116343617E-1
9.652490760E-1,-1.026394272E1,8.164227605E-1,-1.077390790E0
9.676343660E-1,-1.025436592E1,7.876923680E-1,-1.357512355E0
9.690844220E-1,-1.023521233E1,7.062895298E-1,-1.479616642E0
9.717021360E-1,-1.020408726E1,6.584054828E-1,-1.695094824E0
9.732959600E-1,-1.018253994E1,5.913678408E-1,-1.857900500E0
9.758049050E-1,-1.016338634E1,5.602431893E-1,-1.917755604E0
9.774866910E-1,-1.011310768E1,4.836287498E-1,-2.025494576E0
9.799074050E-1,-1.006761837E1,4.070142806E-1,-2.142810583E0
9.813120760E-1,-1.004846478E1,3.567360640E-1,-2.207453966E0
9.840101360E-1,-1.001973438E1,2.513911724E-1,-2.312798738E0
9.855095370E-1,-1.001015759E1,1.412578970E-1,-2.384624958E0
9.881312890E-1,-1.001255131E1,8.140286058E-2,-2.396595955E0
9.895237680E-1,-1.002452278E1,-4.788403213E-2,-2.384624958E0
9.922336360E-1,-1.006043530E1,-1.532289088E-1,-2.310404539E0
9.936705760E-1,-1.007480049E1,-2.178723514E-1,-2.260126352E0
9.963061910E-1,-1.010592556E1,-3.399766386E-1,-2.149993181E0
9.977992300E-1,-1.010831928E1,-4.285621047E-1,-2.032677174E0
1.000439328E0,-1.011310768E1,-5.219359994E-1,-1.900996208E0
1.001886653E0,-1.011071396E1,-5.746083856E-1,-1.824381709E0
1.004541443E0,-1.014423275E1,-6.464344859E-1,-1.675941229E0
1.006035614E0,-1.015141487E1,-7.134721279E-1,-1.556231141E0
1.008478230E0,-1.015141487E1,-7.398083210E-1,-1.522712231E0
1.010417037E0,-1.016099167E1,-7.924807668E-1,-1.448492050E0
1.012584384E0,-1.015141487E1,-8.307880163E-1,-1.357512355E0
1.014193614E0,-1.014423275E1,-8.499416113E-1,-1.316810966E0
1.016752384E0,-1.010113716E1,-8.762778044E-1,-1.228225470E0
1.018294845E0,-1.006761837E1,-9.026140571E-1,-1.120486379E0
1.020844845E0,-1.006282997E1,-9.145850539E-1,-1.070208192E0
1.022440730E0,-1.003170490E1,-9.481038451E-1,-9.720458984E-1
1.025058135E0,-9.986215591E0,-9.816226959E-1,-8.714894056E-1
1.026456537E0,-9.950302124E0,-9.888052940E-1,-7.541735172E-1
1.028984076E0,-9.943120003E0,-1.000776291E0,-7.015010715E-1
1.030568307E0,-9.919178009E0,-1.005564690E0,-6.081272364E-1
1.033050460E0,-9.921571732E0,-1.029506683E0,-5.458779931E-1
1.034702230E0,-9.916783333E0,-1.041477680E0,-5.123591423E-1
1.037153191E0,-9.923966408E0,-1.043871999E0,-4.501099288E-1
1.038790153E0,-9.897629738E0,-1.065419793E0,-4.022258818E-1
1.041473405E0,-9.888052940E0,-1.072602391E0,-3.878606856E-1
1.042867614E0,-9.873687744E0,-1.063025594E0,-3.519476354E-1
1.045575828E0,-9.854534149E0,-1.055842996E0,-3.280056417E-1
1.047131191E0,-9.832986832E0,-1.058237195E0,-3.256114423E-1
1.049645635E0,-9.823410034E0,-1.048660398E0,-3.184288144E-1
1.051013268E0,-9.823410034E0,-1.046266198E0,-3.040636182E-1
1.053713405E0,-9.811438560E0,-1.043871999E0,-2.992752194E-1
1.055139845E0,-9.797073364E0,-1.015141487E0,-2.992752194E-1
1.057815981E0,-9.768342972E0,-9.648633003E-1,-2.968810201E-1
1.059201037E0,-9.749189377E0,-9.361328483E-1,-3.208230138E-1
1.061918251E0,-9.746794701E0,-8.882488012E-1,-3.303998411E-1
1.063312268E0,-9.734824181E0,-8.164227605E-1,-3.663128614E-1
1.066020789E0,-9.715670586E0,-7.254431248E-1,-3.926490843E-1
1.067514076E0,-9.710882187E0,-6.943184733E-1,-4.118026793E-1
1.070149251E0,-9.696516991E0,-6.129156351E-1,-4.620809257E-1
1.071545460E0,-9.684545517E0,-5.315127969E-1,-5.243301988E-1
1.074251328E0,-9.674968719E0,-4.932055473E-1,-5.482721925E-1
1.075746268E0,-9.670180321E0,-4.070142806E-1,-6.033388376E-1
1.078338883E0,-9.662998199E0,-3.232172430E-1,-6.607996821E-1
1.079777730E0,-9.667786598E0,-2.992752194E-1,-6.919242740E-1
1.082455251E0,-9.667786598E0,-2.394201756E-1,-7.541735172E-1
1.083856576E0,-9.677363396E0,-1.843535304E-1,-7.757213712E-1
1.086557558E0,-9.672574997E0,-1.484405100E-1,-7.972691655E-1
1.087975807E0,-9.672574997E0,-1.388636976E-1,-7.996633649E-1
1.090526922E0,-9.670180321E0,-9.337386489E-2,-7.972691655E-1
1.092114537E0,-9.689333916E0,-7.182604820E-2,-7.972691655E-1
1.094773635E0,-9.701305389E0,-6.703764945E-2,-7.948749661E-1
1.096231768E0,-9.727641106E0,-6.464344263E-2,-8.116343617E-1
1.098875943E0,-9.758766174E0,-3.351882473E-2,-8.547300100E-1
1.100308960E0,-9.770736694E0,-1.915361360E-2,-8.786720037E-1
1.102982460E0,-9.794678688E0,-4.309562966E-2,-9.169792533E-1
1.104406730E0,-9.864110947E0,-4.788403213E-2,-9.552865028E-1
1.107106174E0,-9.880870819E0,-3.591302410E-2,-9.696516991E-1
1.108548730E0,-9.909601212E0,-2.633621916E-2,-9.768342972E-1
1.111043383E0,-9.926360130E0,-2.154781483E-2,-9.744400978E-1
1.112642730E0,-9.952696800E0,-3.112462163E-2,-9.576807022E-1
1.115131537E0,-9.952696800E0,-4.548983276E-2,-9.528923035E-1
1.116794383E0,-9.957485199E0,-4.070143029E-2,-9.241618514E-1
1.119368191E0,-9.938331604E0,-3.112462163E-2,-8.571242094E-1
1.120848345E0,-9.935936928E0,-4.309562966E-2,-8.427590132E-1
1.123536481E0,-9.945513725E0,-3.112462163E-2,-8.259995580E-1
1.124947307E0,-9.947908401E0,-3.351882473E-2,-8.068459630E-1
1.127638366E0,-9.943120003E0,-2.873042040E-2,-8.020575643E-1
1.129223807E0,-9.938331604E0,-4.788403399E-3,-7.852981687E-1
1.131717443E0,-9.921571732E0,1.436521020E-2,-7.565677166E-1
1.133097960E0,-9.921571732E0,2.394201607E-2,-7.398083210E-1
1.135783750E0,-9.933543205E0,3.830722719E-2,-6.679822803E-1
1.137345499E0,-9.959878922E0,5.506663769E-2,-6.009446383E-1
1.139885443E0,-9.967061996E0,7.182604820E-2,-5.698199868E-1
1.141315922E0,-9.981427193E0,1.053448766E-1,-5.003881454E-1
1.143986789E0,-9.988609314E0,1.292868853E-1,-4.477157295E-1
1.145438922E0,-9.959878922E0,1.723825186E-1,-4.022258818E-1
1.148088250E0,-9.945513725E0,1.843535304E-1,-3.734954596E-1
1.149642960E0,-9.940725327E0,1.915361285E-1,-3.423708379E-1
1.152217981E0,-9.921571732E0,2.059013397E-1,-3.160346150E-1
1.153729268E0,-9.904812813E0,2.059013397E-1,-3.064578176E-1
1.156319596E0,-9.885659218E0,2.082955539E-1,-2.896983922E-1
1.157781191E0,-9.852140427E0,2.346317619E-1,-2.849099934E-1
1.160421366E0,-9.832986832E0,2.346317619E-1,-2.849099934E-1
1.161840114E0,-9.818621635E0,2.394201756E-1,-3.136404157E-1
1.164522520E0,-9.799467087E0,2.394201756E-1,-3.327940404E-1
1.165949768E0,-9.782708168E0,2.370259613E-1,-3.447650373E-1
1.168623712E0,-9.775525093E0,2.370259613E-1,-3.519476354E-1
1.170059653E0,-9.768342972E0,2.370259613E-1,-3.711012602E-1
1.172729614E0,-9.775525093E0,1.963245422E-1,-3.974374831E-1
1.174156076E0,-9.777919769E0,1.747767180E-1,-4.141969085E-1
1.176838635E0,-9.785101891E0,1.580173075E-1,-4.285621047E-1
1.178535922E0,-9.773131371E0,1.268926859E-1,-4.501099288E-1
1.180940289E0,-9.773131371E0,1.101332754E-1,-4.620809257E-1
1.182406076E0,-9.780313492E0,8.858546615E-2,-4.620809257E-1
1.184983268E0,-9.785101891E0,4.788403213E-2,-4.908113480E-1
1.186484614E0,-9.780313492E0,1.197100803E-2,-5.027823448E-1
1.189142981E0,-9.809044838E0,-7.422025502E-2,-5.410895944E-1
1.190634422E0,-9.797073364E0,-1.316810995E-1,-5.602431893E-1
1.193098730E0,-9.801861763E0,-1.508347094E-1,-5.770025849E-1
1.194783076E0,-9.787496567E0,-1.987187415E-1,-6.272808313E-1
1.197206960E0,-9.794678688E0,-2.609679997E-1,-6.703764796E-1
1.198824037E0,-9.818621635E0,-3.160346150E-1,-7.086837292E-1
1.201282691E0,-9.830592155E0,-3.375824392E-1,-7.254431248E-1
1.202886922E0,-9.837775230E0,-3.974374831E-1,-7.469909191E-1
1.205561981E0,-9.849745750E0,-4.333505034E-1,-7.469909191E-1
1.206984883E0,-9.856928825E0,-4.548983276E-1,-7.398083210E-1
1.209663135E0,-9.859322548E0,-4.979939461E-1,-7.493851185E-1
1.211406806E0,-9.876082420E0,-5.506663918E-1,-7.445967197E-1
1.213739481E0,-9.883264542E0,-5.817909837E-1,-7.374141216E-1
1.215164653E0,-9.873687744E0,-6.224924326E-1,-7.350199223E-1
1.217806250E0,-9.888052940E0,-6.296750307E-1,-7.254431248E-1
1.219820768E0,-9.895236015E0,-6.464344859E-1,-7.158663273E-1
1.221908481E0,-9.928754807E0,-6.751648784E-1,-7.062895298E-1
1.223363383E0,-9.947908401E0,-6.967126727E-1,-7.206547260E-1
1.226010865E0,-9.940725327E0,-6.943184733E-1,-7.254431248E-1
1.227767730E0,-9.967061996E0,-6.847416759E-1,-7.302315235E-1
1.230112750E0,-9.974244118E0,-6.823474765E-1,-7.493851185E-1
1.231663730E0,-9.950302124E0,-6.655880809E-1,-7.613561153E-1
1.234242135E0,-9.950302124E0,-6.584054828E-1,-7.613561153E-1
1.235819345E0,-9.938331604E0,-6.464344859E-1,-7.613561153E-1
1.238344404E0,-9.931148529E0,-6.296750307E-1,-7.445967197E-1
1.239810999E0,-9.921571732E0,-6.224924326E-1,-7.422025204E-1
1.242446942E0,-9.923966408E0,-5.841852427E-1,-7.398083210E-1
1.243897960E0,-9.919178009E0,-5.530605912E-1,-7.326257229E-1
1.246549365E0,-9.904812813E0,-5.410895944E-1,-7.182605267E-1
1.247972114E0,-9.911994934E0,-5.099649429E-1,-7.038952708E-1
1.250652096E0,-9.900024414E0,-4.979939461E-1,-7.062895298E-1
1.252114922E0,-9.900024414E0,-4.884171486E-1,-6.919242740E-1
1.254647345E0,-9.900024414E0,-4.381389022E-1,-6.655880809E-1
1.256210306E0,-9.919178009E0,-3.950432837E-1,-6.560112834E-1
1.258871904E0,-9.914389610E0,-3.758896589E-1,-6.512228847E-1
1.260579076E0,-9.900024414E0,-3.663128614E-1,-6.368576288E-1
1.262974173E0,-9.876082420E0,-3.399766386E-1,-6.248866320E-1
1.264425883E0,-9.876082420E0,-3.208230138E-1,-6.105214357E-1
1.267044653E0,-9.871294022E0,-3.112462163E-1,-6.105214357E-1
1.268537114E0,-9.859322548E0,-2.944868207E-1,-6.224924326E-1
1.271178019E0,-9.828198433E0,-2.705447972E-1,-6.105214357E-1
1.272681345E0,-9.821015358E0,-2.585737705E-1,-6.057330370E-1
1.275108306E0,-9.821015358E0,-2.298433632E-1,-5.985504389E-1
1.276736883E0,-9.842563629E0,-2.178723514E-1,-6.081272364E-1
1.279310229E0,-9.837775230E0,-2.130839527E-1,-6.009446383E-1
1.280871845E0,-9.823410034E0,-2.011129409E-1,-5.889736414E-1
1.283329537E0,-9.816226959E0,-1.891419291E-1,-5.841852427E-1
1.284950883E0,-9.785101891E0,-1.867477298E-1,-5.770025849E-1
1.287603673E0,-9.777919769E0,-1.843535304E-1,-5.698199868E-1
1.289075191E0,-9.775525093E0,-1.675941199E-1,-5.722141862E-1
1.291705634E0,-9.775525093E0,-1.699883193E-1,-5.602431893E-1
1.293725614E0,-9.773131371E0,-1.651999205E-1,-5.650315881E-1
1.295782788E0,-9.777919769E0,-1.628057212E-1,-5.698199868E-1
1.297208191E0,-9.775525093E0,-1.604115069E-1,-5.770025849E-1
1.299850673E0,-9.770736694E0,-1.580173075E-1,-5.770025849E-1
1.301339960E0,-9.763554573E0,-1.340752989E-1,-5.746083856E-1
1.303953904E0,-9.761159897E0,-1.436520964E-1,-5.674257874E-1
1.305366806E0,-9.758766174E0,-1.412578970E-1,-5.626373887E-1
1.308055519E0,-9.746794701E0,-1.316810995E-1,-5.482721925E-1
1.309536653E0,-9.753977776E0,-1.244984865E-1,-5.482721925E-1
1.312156634E0,-9.753977776E0,-1.197100878E-1,-5.458779931E-1
1.313773153E0,-9.756371498E0,-1.221042871E-1,-5.434837937E-1
1.316285173E0,-9.761159897E0,-1.197100878E-1,-5.219359994E-1
1.317770037E0,-9.746794701E0,-1.244984865E-1,-5.123591423E-1
1.320385634E0,-9.742006302E0,-1.292868853E-1,-5.075707436E-1
1.321864691E0,-9.732429504E0,-1.436520964E-1,-5.099649429E-1
1.324487519E0,-9.749189377E0,-1.580173075E-1,-5.171475410E-1
1.326049922E0,-9.742006302E0,-1.532289088E-1,-5.123591423E-1
1.328589480E0,-9.753977776E0,-1.628057212E-1,-5.099649429E-1
1.330034306E0,-9.765948296E0,-1.412578970E-1,-5.099649429E-1
1.332691711E0,-9.777919769E0,-1.484405100E-1,-5.075707436E-1
1.334272768E0,-9.792284966E0,-1.604115069E-1,-5.099649429E-1
1.336791191E0,-9.799467087E0,-1.915361285E-1,-5.291185975E-1
1.338264845E0,-9.801861763E0,-1.915361285E-1,-5.410895944E-1
1.340759653E0,-9.816226959E0,-1.867477298E-1,-5.386953950E-1
1.342423960E0,-9.830592155E0,-1.963245422E-1,-5.363011956E-1
1.345012557E0,-9.816226959E0,-2.035071403E-1,-5.530605912E-1
1.346772691E0,-9.818621635E0,-2.082955539E-1,-5.578489900E-1
1.349103845E0,-9.821015358E0,-2.011129409E-1,-5.506663918E-1
1.350601806E0,-9.849745750E0,-2.082955539E-1,-5.578489900E-1
1.353240288E0,-9.854534149E0,-2.274491638E-1,-5.626373887E-1
1.354718499E0,-9.849745750E0,-2.274491638E-1,-5.841852427E-1
1.357198999E0,-9.868899345E0,-2.346317619E-1,-5.817909837E-1
1.358926576E0,-9.871294022E0,-2.250549644E-1,-5.746083856E-1
1.361298306E0,-9.888052940E0,-2.226607651E-1,-5.770025849E-1
1.362955768E0,-9.890447617E0,-2.418143749E-1,-5.817909837E-1
1.365464268E0,-9.911994934E0,-2.418143749E-1,-5.841852427E-1
1.367015191E0,-9.916783333E0,-2.370259613E-1,-5.865794420E-1
1.369665750E0,-9.928754807E0,-2.442085743E-1,-5.913678408E-1
1.371105845E0,-9.938331604E0,-2.561795712E-1,-5.985504389E-1
1.373768403E0,-9.935936928E0,-2.585737705E-1,-5.937620401E-1
1.375847191E0,-9.919178009E0,-2.418143749E-1,-5.937620401E-1
1.377845942E0,-9.938331604E0,-2.489969730E-1,-5.961562395E-1
1.379466806E0,-9.940725327E0,-2.466027737E-1,-5.985504389E-1
1.381913249E0,-9.938331604E0,-2.442085743E-1,-5.722141862E-1
1.383381576E0,-9.943120003E0,-2.346317619E-1,-5.602431893E-1
1.386015826E0,-9.943120003E0,-2.370259613E-1,-5.602431893E-1
1.387480922E0,-9.923966408E0,-2.274491638E-1,-5.578489900E-1
1.390117826E0,-9.928754807E0,-2.226607651E-1,-5.530605912E-1
1.391758114E0,-9.928754807E0,-2.298433632E-1,-5.482721925E-1
1.394220019E0,-9.928754807E0,-2.154781520E-1,-5.386953950E-1
1.395779037E0,-9.928754807E0,-2.059013397E-1,-5.458779931E-1
1.398348826E0,-9.938331604E0,-2.035071403E-1,-5.291185975E-1
1.399981999E0,-9.945513725E0,-2.059013397E-1,-5.267243981E-1
1.402451557E0,-9.959878922E0,-2.035071403E-1,-5.267243981E-1
1.403915422E0,-9.959878922E0,-2.059013397E-1,-5.291185975E-1
1.406554211E0,-9.957485199E0,-2.035071403E-1,-5.386953950E-1
1.408025306E0,-9.964667320E0,-2.082955539E-1,-5.363011956E-1
1.410656826E0,-9.962273598E0,-2.130839527E-1,-5.243301988E-1
1.412136883E0,-9.959878922E0,-2.059013397E-1,-5.123591423E-1
1.414760403E0,-9.957485199E0,-2.082955539E-1,-5.171475410E-1
1.416234383E0,-9.974244118E0,-2.082955539E-1,-5.171475410E-1
1.418749806E0,-9.959878922E0,-2.082955539E-1,-5.171475410E-1
1.420328306E0,-9.952696800E0,-2.011129409E-1,-5.123591423E-1
1.422979672E0,-9.959878922E0,-1.723825186E-1,-5.195417404E-1
1.424616883E0,-9.969455719E0,-1.699883193E-1,-5.291185975E-1
1.427024306E0,-9.976638794E0,-1.867477298E-1,-5.267243981E-1
1.428702229E0,-9.993397713E0,-1.867477298E-1,-5.363011956E-1
1.431134999E0,-9.991003990E0,-1.747767180E-1,-5.434837937E-1
1.432656845E0,-1.000297451E1,-1.675941199E-1,-5.482721925E-1
1.435289211E0,-1.001015759E1,-1.675941199E-1,-5.650315881E-1
1.436853768E0,-1.001494598E1,-1.675941199E-1,-5.770025849E-1
1.439410057E0,-1.001494598E1,-1.771709323E-1,-5.793967843E-1
1.440950037E0,-1.001494598E1,-1.819593310E-1,-5.770025849E-1
1.443379999E0,-1.002212811E1,-1.723825186E-1,-5.889736414E-1
1.445054537E0,-1.002212811E1,-1.771709323E-1,-5.937620401E-1
1.447520960E0,-1.001015759E1,-1.819593310E-1,-6.009446383E-1
1.449311306E0,-1.001015759E1,-1.771709323E-1,-6.057330370E-1
1.451719403E0,-1.000776291E1,-1.699883193E-1,-6.009446383E-1
1.453261729E0,-1.001973438E1,-1.675941199E-1,-5.913678408E-1
1.455822518E0,-1.001973438E1,-1.747767180E-1,-5.770025849E-1
1.457589306E0,-1.000297451E1,-1.867477298E-1,-5.722141862E-1
1.459900249E0,-1.000058079E1,-1.771709323E-1,-5.650315881E-1
1.461375806E0,-9.988609314E0,-1.771709323E-1,-5.626373887E-1
1.463967172E0,-9.969455719E0,-1.963245422E-1,-5.458779931E-1
1.465511806E0,-9.964667320E0,-1.963245422E-1,-5.434837937E-1
1.468068788E0,-9.957485199E0,-2.082955539E-1,-5.386953950E-1
1.469624883E0,-9.955090523E0,-2.154781520E-1,-5.243301988E-1
1.472170403E0,-9.945513725E0,-2.226607651E-1,-5.243301988E-1
1.473605229E0,-9.923966408E0,-2.274491638E-1,-5.219359994E-1
1.476273211E0,-9.902418137E0,-2.370259613E-1,-5.099649429E-1
1.477893229E0,-9.883264542E0,-2.322375625E-1,-4.932055473E-1
1.480401749E0,-9.871294022E0,-2.178723514E-1,-4.932055473E-1
1.481859499E0,-9.868899345E0,-2.178723514E-1,-4.860229492E-1
1.484503557E0,-9.854534149E0,-2.059013397E-1,-4.740519226E-1
1.486185345E0,-9.847352028E0,-2.202665508E-1,-4.668693244E-1
1.488605134E0,-9.835380554E0,-2.346317619E-1,-4.620809257E-1
1.490089883E0,-9.830592155E0,-2.274491638E-1,-4.548983276E-1
1.492707441E0,-9.813833237E0,-2.274491638E-1,-4.501099288E-1
1.494281883E0,-9.799467087E0,-2.106897533E-1,-4.548983276E-1
1.496810595E0,-9.782708168E0,-2.154781520E-1,-4.596867263E-1
1.498423845E0,-9.763554573E0,-2.322375625E-1,-4.692635238E-1
1.500925903E0,-9.761159897E0,-2.489969730E-1,-4.788403511E-1
1.502647691E0,-9.753977776E0,-2.322375625E-1,-4.740519226E-1
1.505029441E0,-9.742006302E0,-2.346317619E-1,-4.668693244E-1
1.506536075E0,-9.715670586E0,-2.322375625E-1,-4.668693244E-1
1.509094960E0,-9.718064308E0,-2.442085743E-1,-4.764461517E-1
1.510600345E0,-9.706093788E0,-2.418143749E-1,-4.620809257E-1
1.513236518E0,-9.710882187E0,-2.322375625E-1,-4.596867263E-1
1.514658075E0,-9.684545517E0,-2.370259613E-1,-4.596867263E-1
1.517339210E0,-9.677363396E0,-2.466027737E-1,-4.429273009E-1
1.519389172E0,-9.672574997E0,-2.537853718E-1,-4.357447028E-1
1.521441960E0,-9.691728592E0,-2.681505978E-1,-4.261679053E-1
1.522892845E0,-9.703699112E0,-2.585737705E-1,-4.022258818E-1
1.525386845E0,-9.694122314E0,-2.609679997E-1,-3.950432837E-1
1.527014575E0,-9.708487511E0,-2.657563984E-1,-3.687070608E-1
1.529663787E0,-9.718064308E0,-2.873041928E-1,-3.639186621E-1
1.531178768E0,-9.730035782E0,-2.873041928E-1,-3.591302633E-1
1.533766710E0,-9.763554573E0,-2.753331959E-1,-3.495534360E-1
1.535286691E0,-9.789890289E0,-2.633621991E-1,-3.471592367E-1
1.537869980E0,-9.804255486E0,-2.753331959E-1,-3.758896589E-1
1.539693806E0,-9.797073364E0,-2.705447972E-1,-3.878606856E-1
1.541949480E0,-9.823410034E0,-2.633621991E-1,-4.046200812E-1
1.543345383E0,-9.840168953E0,-2.609679997E-1,-4.285621047E-1
1.546018980E0,-9.842563629E0,-2.609679997E-1,-4.285621047E-1
1.547634229E0,-9.842563629E0,-2.705447972E-1,-4.429273009E-1
1.550122595E0,-9.852140427E0,-2.561795712E-1,-4.596867263E-1
1.551903460E0,-9.849745750E0,-2.537853718E-1,-4.596867263E-1
1.554226287E0,-9.866505623E0,-2.633621991E-1,-4.692635238E-1
1.556047845E0,-9.878476143E0,-2.633621991E-1,-4.908113480E-1
1.558329903E0,-9.880870819E0,-2.585737705E-1,-4.908113480E-1
1.559875845E0,-9.892841339E0,-2.609679997E-1,-5.147533417E-1
1.562458672E0,-9.919178009E0,-2.537853718E-1,-5.410895944E-1
1.563899499E0,-9.923966408E0,-2.537853718E-1,-5.458779931E-1
1.566561749E0,-9.921571732E0,-2.418143749E-1,-5.530605912E-1
1.568070499E0,-9.926360130E0,-2.513911724E-1,-5.674257874E-1
1.570664364E0,-9.928754807E0,-2.729389966E-1,-5.770025849E-1
1.572157306E0,-9.926360130E0,-2.633621991E-1,-5.817909837E-1
1.574766980E0,-9.928754807E0,-2.537853718E-1,-5.889736414E-1
1.576279729E0,-9.926360130E0,-2.418143749E-1,-6.081272364E-1
1.578869903E0,-9.921571732E0,-2.418143749E-1,-6.129156351E-1
1.580481499E0,-9.919178009E0,-2.346317619E-1,-6.296750307E-1
1.582831652E0,-9.900024414E0,-2.609679997E-1,-6.224924326E-1
1.584741345E0,-9.904812813E0,-2.657563984E-1,-6.248866320E-1
1.586939114E0,-9.919178009E0,-2.513911724E-1,-6.081272364E-1
1.588576345E0,-9.921571732E0,-2.466027737E-1,-5.913678408E-1
1.591189556E0,-9.933543205E0,-2.442085743E-1,-5.770025849E-1
1.592672845E0,-9.945513725E0,-2.609679997E-1,-5.578489900E-1
1.595228768E0,-9.940725327E0,-2.346317619E-1,-5.530605912E-1
1.596805499E0,-9.952696800E0,-2.274491638E-1,-5.363011956E-1
1.599421249E0,-9.947908401E0,-2.226607651E-1,-5.315127969E-1
1.600920422E0,-9.952696800E0,-2.298433632E-1,-5.147533417E-1
1.603361075E0,-9.943120003E0,-2.394201756E-1,-5.075707436E-1
1.604941729E0,-9.935936928E0,-2.418143749E-1,-4.979939461E-1
1.607458383E0,-9.943120003E0,-2.322375625E-1,-4.716577232E-1
1.609211575E0,-9.933543205E0,-2.250549644E-1,-4.525041282E-1
1.611472575E0,-9.938331604E0,-2.298433632E-1,-4.548983276E-1
1.613054691E0,-9.931148529E0,-2.370259613E-1,-4.429273009E-1
1.615750479E0,-9.935936928E0,-2.250549644E-1,-4.429273009E-1
1.617275998E0,-9.935936928E0,-2.178723514E-1,-4.381389022E-1
1.619853287E0,-9.945513725E0,-2.250549644E-1,-4.357447028E-1
1.621522806E0,-9.928754807E0,-2.370259613E-1,-4.285621047E-1
1.623931979E0,-9.919178009E0,-2.394201756E-1,-4.213795066E-1
1.625330075E0,-9.919178009E0,-2.346317619E-1,-4.189853072E-1
1.627999325E0,-9.916783333E0,-2.418143749E-1,-4.261679053E-1
1.629447998E0,-9.916783333E0,-2.418143749E-1,-4.285621047E-1
1.632101749E0,-9.923966408E0,-2.537853718E-1,-4.309563041E-1
1.633554845E0,-9.921571732E0,-2.442085743E-1,-4.596867263E-1
1.636204248E0,-9.919178009E0,-2.418143749E-1,-4.668693244E-1
1.637636191E0,-9.919178009E0,-2.537853718E-1,-4.668693244E-1
1.640307518E0,-9.904812813E0,-2.561795712E-1,-4.764461517E-1
1.641828806E0,-9.907206535E0,-2.513911724E-1,-4.884171486E-1
1.644435787E0,-9.909601212E0,-2.585737705E-1,-4.908113480E-1
1.645867960E0,-9.902418137E0,-2.657563984E-1,-4.908113480E-1
1.648539018E0,-9.885659218E0,-2.729389966E-1,-4.908113480E-1
1.650006652E0,-9.895236015E0,-2.633621991E-1,-4.908113480E-1
1.652642441E0,-9.904812813E0,-2.585737705E-1,-5.003881454E-1
1.654063806E0,-9.883264542E0,-2.633621991E-1,-5.099649429E-1
1.656746056E0,-9.904812813E0,-2.633621991E-1,-5.147533417E-1
1.658194729E0,-9.904812813E0,-2.705447972E-1,-5.099649429E-1
1.660849095E0,-9.900024414E0,-2.753331959E-1,-5.123591423E-1
1.662315152E0,-9.916783333E0,-2.681505978E-1,-5.219359994E-1
1.664760883E0,-9.916783333E0,-2.633621991E-1,-5.195417404E-1
1.666383960E0,-9.900024414E0,-2.681505978E-1,-5.171475410E-1
1.668893152E0,-9.900024414E0,-2.777273953E-1,-5.099649429E-1
1.670498229E0,-9.895236015E0,-2.896983922E-1,-5.099649429E-1
1.673053922E0,-9.892841339E0,-2.992752194E-1,-5.171475410E-1
1.674617114E0,-9.892841339E0,-2.777273953E-1,-5.123591423E-1
1.677189152E0,-9.895236015E0,-2.825157940E-1,-5.123591423E-1
1.678710960E0,-9.883264542E0,-2.801215947E-1,-5.075707436E-1
1.681378018E0,-9.878476143E0,-2.873041928E-1,-5.171475410E-1
1.682815883E0,-9.890447617E0,-2.801215947E-1,-5.171475410E-1
1.685303845E0,-9.900024414E0,-2.777273953E-1,-5.147533417E-1
1.686917191E0,-9.890447617E0,-2.729389966E-1,-5.147533417E-1
1.689396152E0,-9.864110947E0,-2.585737705E-1,-5.291185975E-1
1.691062037E0,-9.856928825E0,-2.681505978E-1,-5.363011956E-1
1.693527729E0,-9.861717224E0,-2.585737705E-1,-5.363011956E-1
1.695127806E0,-9.864110947E0,-2.705447972E-1,-5.386953950E-1
1.697807210E0,-9.859322548E0,-2.681505978E-1,-5.339069963E-1
1.699333998E0,-9.852140427E0,-2.753331959E-1,-5.195417404E-1
1.701910671E0,-9.852140427E0,-2.657563984E-1,-5.051765442E-1
1.703673845E0,-9.859322548E0,-2.537853718E-1,-4.932055473E-1
1.705989902E0,-9.864110947E0,-2.609679997E-1,-4.908113480E-1
1.707400498E0,-9.873687744E0,-2.705447972E-1,-4.788403511E-1
1.710058133E0,-9.859322548E0,-2.753331959E-1,-4.788403511E-1
1.711531268E0,-9.866505623E0,-2.681505978E-1,-4.812345505E-1
1.714161171E0,-9.856928825E0,-2.681505978E-1,-4.668693244E-1
1.715798075E0,-9.864110947E0,-2.705447972E-1,-4.668693244E-1
1.718264248E0,-9.866505623E0,-2.801215947E-1,-4.716577232E-1
1.719861883E0,-9.866505623E0,-2.849099934E-1,-4.644751251E-1
1.722366940E0,-9.873687744E0,-2.729389966E-1,-4.692635238E-1
1.723885537E0,-9.880870819E0,-2.873041928E-1,-4.644751251E-1
1.726497133E0,-9.883264542E0,-2.753331959E-1,-4.740519226E-1
1.728016229E0,-9.897629738E0,-2.801215947E-1,-4.548983276E-1
1.730600133E0,-9.902418137E0,-2.753331959E-1,-4.525041282E-1
1.732046075E0,-9.895236015E0,-2.489969730E-1,-4.596867263E-1
1.734686306E0,-9.890447617E0,-2.537853718E-1,-4.596867263E-1
1.736201345E0,-9.892841339E0,-2.585737705E-1,-4.596867263E-1
1.738804440E0,-9.895236015E0,-2.681505978E-1,-4.716577232E-1
1.740252691E0,-9.892841339E0,-2.729389966E-1,-4.668693244E-1
1.742906902E0,-9.885659218E0,-2.513911724E-1,-4.764461517E-1
1.744665691E0,-9.878476143E0,-2.466027737E-1,-4.692635238E-1
1.746955806E0,-9.900024414E0,-2.537853718E-1,-4.644751251E-1
1.748568537E0,-9.897629738E0,-2.537853718E-1,-4.692635238E-1
1.750984498E0,-9.892841339E0,-2.537853718E-1,-4.668693244E-1
1.752876998E0,-9.892841339E0,-2.561795712E-1,-4.740519226E-1
1.755159614E0,-9.895236015E0,-2.537853718E-1,-4.788403511E-1
1.756642421E0,-9.890447617E0,-2.466027737E-1,-4.692635238E-1
1.759240152E0,-9.895236015E0,-2.466027737E-1,-4.740519226E-1
1.760774691E0,-9.907206535E0,-2.442085743E-1,-4.740519226E-1
1.763431017E0,-9.895236015E0,-2.513911724E-1,-4.740519226E-1
1.764877614E0,-9.902418137E0,-2.489969730E-1,-4.836287498E-1
1.767550748E0,-9.873687744E0,-2.513911724E-1,-4.812345505E-1
1.768976498E0,-9.871294022E0,-2.561795712E-1,-4.955997467E-1
1.771502229E0,-9.873687744E0,-2.585737705E-1,-5.027823448E-1
1.773131498E0,-9.844957352E0,-2.466027737E-1,-5.147533417E-1
1.775727345E0,-9.856928825E0,-2.418143749E-1,-5.219359994E-1
1.777201460E0,-9.849745750E0,-2.466027737E-1,-5.315127969E-1
1.779859056E0,-9.823410034E0,-2.394201756E-1,-5.410895944E-1
1.781353537E0,-9.837775230E0,-2.370259613E-1,-5.243301988E-1
1.783961940E0,-9.832986832E0,-2.394201756E-1,-5.243301988E-1
1.785603306E0,-9.828198433E0,-2.370259613E-1,-5.291185975E-1
1.788039325E0,-9.821015358E0,-2.202665508E-1,-5.339069963E-1
1.789444306E0,-9.828198433E0,-2.178723514E-1,-5.386953950E-1
1.792107017E0,-9.825803757E0,-2.394201756E-1,-5.386953950E-1
1.793588883E0,-9.811438560E0,-2.202665508E-1,-5.291185975E-1
1.796209709E0,-9.809044838E0,-2.154781520E-1,-5.219359994E-1
1.797675037E0,-9.818621635E0,-2.202665508E-1,-5.195417404E-1
1.800312786E0,-9.828198433E0,-2.106897533E-1,-5.243301988E-1
1.801734306E0,-9.837775230E0,-2.154781520E-1,-5.315127969E-1
1.804416017E0,-9.835380554E0,-2.202665508E-1,-5.339069963E-1
1.806109037E0,-9.816226959E0,-2.226607651E-1,-5.195417404E-1
1.808545171E0,-9.842563629E0,-2.202665508E-1,-5.147533417E-1
1.809988383E0,-9.852140427E0,-2.178723514E-1,-5.099649429E-1
1.812648709E0,-9.852140427E0,-2.250549644E-1,-4.932055473E-1
1.814124768E0,-9.864110947E0,-2.298433632E-1,-4.884171486E-1
1.816752979E0,-9.856928825E0,-2.202665508E-1,-4.836287498E-1
1.818333883E0,-9.849745750E0,-2.082955539E-1,-4.740519226E-1
1.820856325E0,-9.868899345E0,-2.154781520E-1,-4.788403511E-1
1.822375575E0,-9.871294022E0,-2.322375625E-1,-4.836287498E-1
1.824959940E0,-9.885659218E0,-2.202665508E-1,-4.788403511E-1
1.826412229E0,-9.883264542E0,-2.178723514E-1,-4.860229492E-1
1.828885421E0,-9.885659218E0,-2.226607651E-1,-4.884171486E-1
1.830611344E0,-9.883264542E0,-2.130839527E-1,-4.979939461E-1
1.832979229E0,-9.871294022E0,-2.226607651E-1,-5.027823448E-1
1.834647114E0,-9.880870819E0,-2.346317619E-1,-4.979939461E-1
1.837281325E0,-9.878476143E0,-2.370259613E-1,-4.932055473E-1
1.838806498E0,-9.883264542E0,-2.418143749E-1,-4.955997467E-1
1.841333229E0,-9.892841339E0,-2.322375625E-1,-4.955997467E-1
1.842866460E0,-9.885659218E0,-2.466027737E-1,-4.908113480E-1
1.845512440E0,-9.880870819E0,-2.489969730E-1,-5.003881454E-1
1.846988652E0,-9.895236015E0,-2.561795712E-1,-5.051765442E-1
1.849459075E0,-9.885659218E0,-2.585737705E-1,-5.075707436E-1
1.851069921E0,-9.888052940E0,-2.585737705E-1,-5.171475410E-1
1.853564614E0,-9.900024414E0,-2.609679997E-1,-5.315127969E-1
1.855216921E0,-9.900024414E0,-2.609679997E-1,-5.195417404E-1
1.857840478E0,-9.904812813E0,-2.681505978E-1,-5.219359994E-1
1.859435306E0,-9.933543205E0,-2.681505978E-1,-5.219359994E-1
1.861943171E0,-9.928754807E0,-2.681505978E-1,-5.171475410E-1
1.863420268E0,-9.923966408E0,-2.681505978E-1,-5.171475410E-1
1.866045671E0,-9.911994934E0,-2.753331959E-1,-5.075707436E-1
1.867694806E0,-9.914389610E0,-2.896983922E-1,-5.075707436E-1
1.870123478E0,-9.909601212E0,-2.992752194E-1,-5.003881454E-1
1.871676998E0,-9.916783333E0,-3.040636182E-1,-5.099649429E-1
1.874191286E0,-9.945513725E0,-3.112462163E-1,-4.979939461E-1
1.875684075E0,-9.935936928E0,-3.064578176E-1,-5.051765442E-1
1.878293863E0,-9.945513725E0,-3.040636182E-1,-5.051765442E-1
1.879767421E0,-9.943120003E0,-2.849099934E-1,-5.075707436E-1
1.882396940E0,-9.928754807E0,-2.944868207E-1,-5.051765442E-1
1.883895114E0,-9.921571732E0,-2.801215947E-1,-4.979939461E-1
1.886500017E0,-9.926360130E0,-2.896983922E-1,-5.027823448E-1
1.888030921E0,-9.914389610E0,-2.849099934E-1,-4.955997467E-1
1.890630324E0,-9.911994934E0,-3.016694188E-1,-4.884171486E-1
1.892057652E0,-9.902418137E0,-3.040636182E-1,-5.123591423E-1
1.894733940E0,-9.885659218E0,-3.136404157E-1,-5.027823448E-1
1.896204921E0,-9.878476143E0,-2.944868207E-1,-4.860229492E-1
1.898836940E0,-9.883264542E0,-3.016694188E-1,-4.812345505E-1
1.900306383E0,-9.890447617E0,-3.160346150E-1,-4.884171486E-1
1.902939824E0,-9.883264542E0,-3.160346150E-1,-4.884171486E-1
1.904822229E0,-9.854534149E0,-3.184288144E-1,-4.884171486E-1
1.907042247E0,-9.854534149E0,-2.896983922E-1,-4.884171486E-1
1.908534575E0,-9.864110947E0,-2.873041928E-1,-4.836287498E-1
1.911066306E0,-9.864110947E0,-2.896983922E-1,-4.884171486E-1
1.912590075E0,-9.859322548E0,-3.208230138E-1,-4.812345505E-1
1.915090460E0,-9.842563629E0,-3.112462163E-1,-4.836287498E-1
1.916741191E0,-9.840168953E0,-3.112462163E-1,-4.836287498E-1
1.919364440E0,-9.835380554E0,-3.112462163E-1,-4.788403511E-1
1.921024575E0,-9.825803757E0,-3.184288144E-1,-4.860229492E-1
1.923399191E0,-9.835380554E0,-3.232172430E-1,-4.764461517E-1
1.924923152E0,-9.825803757E0,-3.256114423E-1,-4.716577232E-1
1.927570286E0,-9.825803757E0,-3.184288144E-1,-4.788403511E-1
1.929034344E0,-9.825803757E0,-3.232172430E-1,-4.764461517E-1
1.931530421E0,-9.835380554E0,-3.375824392E-1,-4.764461517E-1
1.933123998E0,-9.837775230E0,-3.280056417E-1,-4.740519226E-1
1.935632729E0,-9.794678688E0,-3.232172430E-1,-4.860229492E-1
1.937291614E0,-9.799467087E0,-3.256114423E-1,-4.860229492E-1
1.939811575E0,-9.806650162E0,-3.184288144E-1,-4.812345505E-1
1.941351498E0,-9.806650162E0,-3.327940404E-1,-4.668693244E-1
1.944001017E0,-9.816226959E0,-3.375824392E-1,-4.692635238E-1
1.945489575E0,-9.825803757E0,-3.327940404E-1,-4.764461517E-1
1.948103824E0,-9.816226959E0,-3.423708379E-1,-4.884171486E-1
1.949729575E0,-9.811438560E0,-3.375824392E-1,-4.884171486E-1
1.952181824E0,-9.821015358E0,-3.208230138E-1,-4.932055473E-1
1.953746075E0,-9.823410034E0,-3.399766386E-1,-5.003881454E-1
1.956249324E0,-9.835380554E0,-3.327940404E-1,-5.051765442E-1
1.957741383E0,-9.847352028E0,-3.351882398E-1,-5.027823448E-1
1.960351670E0,-9.832986832E0,-3.280056417E-1,-4.908113480E-1
1.962023306E0,-9.830592155E0,-3.303998411E-1,-4.979939461E-1
1.964454555E0,-9.837775230E0,-3.160346150E-1,-5.147533417E-1
1.965903883E0,-9.866505623E0,-3.112462163E-1,-5.075707436E-1
1.968557324E0,-9.859322548E0,-3.136404157E-1,-5.123591423E-1
1.970185767E0,-9.864110947E0,-2.992752194E-1,-5.123591423E-1
1.972685940E0,-9.864110947E0,-3.136404157E-1,-5.075707436E-1
1.974117806E0,-9.864110947E0,-3.040636182E-1,-5.051765442E-1
1.976788593E0,-9.871294022E0,-3.064578176E-1,-5.027823448E-1
1.978256075E0,-9.892841339E0,-3.040636182E-1,-5.003881454E-1
1.980891093E0,-9.888052940E0,-3.016694188E-1,-5.003881454E-1
1.982364614E0,-9.890447617E0,-2.920926213E-1,-4.979939461E-1
1.984993632E0,-9.892841339E0,-3.088520169E-1,-4.884171486E-1
1.986678229E0,-9.888052940E0,-3.088520169E-1,-4.908113480E-1
1.989096170E0,-9.900024414E0,-3.112462163E-1,-4.884171486E-1
1.990728652E0,-9.914389610E0,-3.016694188E-1,-4.836287498E-1
1.993045729E0,-9.921571732E0,-2.992752194E-1,-4.955997467E-1
1.994743306E0,-9.904812813E0,-3.016694188E-1,-4.955997467E-1
1.997215075E0,-9.907206535E0,-3.088520169E-1,-4.955997467E-1
1.998835691E0,-9.928754807E0,-3.256114423E-1,-4.979939461E-1
2.001380691E0,-9.931148529E0,-3.303998411E-1,-5.099649429E-1
2.002921306E0,-9.928754807E0,-3.303998411E-1,-5.075707436E-1
2.005422037E0,-9.931148529E0,-3.208230138E-1,-5.051765442E-1
2.006972806E0,-9.931148529E0,-3.208230138E-1,-5.003881454E-1
2.009621555E0,-9.926360130E0,-3.232172430E-1,-5.027823448E-1
2.011158960E0,-9.923966408E0,-3.351882398E-1,-5.219359994E-1
2.013653614E0,-9.940725327E0,-3.471592367E-1,-5.195417404E-1
2.015188306E0,-9.943120003E0,-3.280056417E-1,-5.219359994E-1
2.017685806E0,-9.940725327E0,-3.280056417E-1,-5.051765442E-1
2.019437114E0,-9.935936928E0,-3.375824392E-1,-5.147533417E-1
2.021798614E0,-9.933543205E0,-3.447650373E-1,-5.219359994E-1
2.023410537E0,-9.926360130E0,-3.351882398E-1,-5.243301988E-1
2.026048555E0,-9.928754807E0,-3.327940404E-1,-5.315127969E-1
2.027817498E0,-9.938331604E0,-3.327940404E-1,-5.315127969E-1
2.030151862E0,-9.935936928E0,-3.423708379E-1,-5.363011956E-1
2.031922960E0,-9.926360130E0,-3.447650373E-1,-5.410895944E-1
2.034229516E0,-9.916783333E0,-3.327940404E-1,-5.506663918E-1
2.035727806E0,-9.916783333E0,-3.423708379E-1,-5.506663918E-1
2.038297670E0,-9.926360130E0,-3.471592367E-1,-5.458779931E-1
2.039866921E0,-9.921571732E0,-3.567360640E-1,-5.650315881E-1
2.042401093E0,-9.914389610E0,-3.543418646E-1,-5.698199868E-1
2.043893229E0,-9.892841339E0,-3.423708379E-1,-5.650315881E-1
2.046503901E0,-9.883264542E0,-3.447650373E-1,-5.722141862E-1
2.047953460E0,-9.890447617E0,-3.375824392E-1,-5.746083856E-1
2.050606632E0,-9.907206535E0,-3.208230138E-1,-5.770025849E-1
2.052157421E0,-9.885659218E0,-3.136404157E-1,-5.698199868E-1
2.054735862E0,-9.878476143E0,-3.112462163E-1,-5.650315881E-1
2.056232306E0,-9.866505623E0,-2.992752194E-1,-5.602431893E-1
2.058838285E0,-9.861717224E0,-2.944868207E-1,-5.650315881E-1
2.060481344E0,-9.854534149E0,-2.896983922E-1,-5.554547906E-1
2.062941516E0,-9.866505623E0,-2.825157940E-1,-5.458779931E-1
2.064383190E0,-9.859322548E0,-2.801215947E-1,-5.458779931E-1
2.067044555E0,-9.847352028E0,-2.729389966E-1,-5.315127969E-1
2.068516498E0,-9.852140427E0,-2.633621991E-1,-5.386953950E-1
2.071147170E0,-9.868899345E0,-2.537853718E-1,-5.386953950E-1
2.072626037E0,-9.864110947E0,-2.609679997E-1,-5.315127969E-1
2.075070998E0,-9.864110947E0,-2.609679997E-1,-5.267243981E-1
2.076708652E0,-9.873687744E0,-2.657563984E-1,-5.027823448E-1
2.079224114E0,-9.866505623E0,-2.777273953E-1,-4.884171486E-1
2.080929152E0,-9.856928825E0,-2.705447972E-1,-4.908113480E-1
2.083468785E0,-9.864110947E0,-2.753331959E-1,-4.836287498E-1
2.084976306E0,-9.859322548E0,-2.657563984E-1,-4.788403511E-1
2.087596708E0,-9.873687744E0,-2.633621991E-1,-4.668693244E-1
2.089056575E0,-9.880870819E0,-2.657563984E-1,-4.716577232E-1
2.091699362E0,-9.883264542E0,-2.537853718E-1,-4.692635238E-1
2.093174690E0,-9.888052940E0,-2.418143749E-1,-4.596867263E-1
2.095695190E0,-9.888052940E0,-2.513911724E-1,-4.525041282E-1
2.097338767E0,-9.888052940E0,-2.633621991E-1,-4.644751251E-1
2.099853229E0,-9.880870819E0,-2.537853718E-1,-4.644751251E-1
2.101514152E0,-9.878476143E0,-2.442085743E-1,-4.716577232E-1
2.104026324E0,-9.892841339E0,-2.250549644E-1,-4.764461517E-1
2.105477998E0,-9.885659218E0,-2.537853718E-1,-4.812345505E-1
2.108129324E0,-9.873687744E0,-2.394201756E-1,-4.740519226E-1
2.109591306E0,-9.876082420E0,-2.370259613E-1,-4.716577232E-1
2.112232170E0,-9.890447617E0,-2.298433632E-1,-4.740519226E-1
2.113956921E0,-9.897629738E0,-2.274491638E-1,-4.860229492E-1
2.116309554E0,-9.900024414E0,-2.346317619E-1,-4.908113480E-1
2.117733844E0,-9.880870819E0,-2.442085743E-1,-5.075707436E-1
2.120378131E0,-9.878476143E0,-2.418143749E-1,-5.099649429E-1
2.122024190E0,-9.888052940E0,-2.346317619E-1,-5.099649429E-1
2.124481439E0,-9.890447617E0,-2.178723514E-1,-5.075707436E-1
2.125992767E0,-9.871294022E0,-2.274491638E-1,-5.099649429E-1
2.128585016E0,-9.866505623E0,-2.322375625E-1,-5.051765442E-1
2.130100767E0,-9.868899345E0,-2.202665508E-1,-5.027823448E-1
2.132689285E0,-9.868899345E0,-2.298433632E-1,-4.884171486E-1
2.134235844E0,-9.868899345E0,-2.442085743E-1,-4.932055473E-1
2.136818362E0,-9.873687744E0,-2.585737705E-1,-5.075707436E-1
2.138357075E0,-9.885659218E0,-2.585737705E-1,-4.979939461E-1
2.140922016E0,-9.883264542E0,-2.633621991E-1,-4.908113480E-1
2.142417075E0,-9.888052940E0,-2.561795712E-1,-5.003881454E-1
2.145025670E0,-9.900024414E0,-2.585737705E-1,-5.291185975E-1
2.146458575E0,-9.907206535E0,-2.729389966E-1,-5.530605912E-1
2.149129477E0,-9.895236015E0,-2.825157940E-1,-5.602431893E-1
2.150586921E0,-9.890447617E0,-2.777273953E-1,-5.770025849E-1
2.153232131E0,-9.885659218E0,-2.801215947E-1,-5.961562395E-1
2.154903767E0,-9.880870819E0,-2.825157940E-1,-6.033388376E-1
2.157220498E0,-9.873687744E0,-2.849099934E-1,-6.129156351E-1
2.158912767E0,-9.878476143E0,-2.896983922E-1,-6.200982332E-1
2.161339998E0,-9.871294022E0,-2.849099934E-1,-6.272808313E-1
2.162918267E0,-9.873687744E0,-2.825157940E-1,-6.272808313E-1
2.165492113E0,-9.856928825E0,-2.896983922E-1,-6.296750307E-1
2.167012690E0,-9.864110947E0,-2.849099934E-1,-6.392518282E-1
2.169635190E0,-9.868899345E0,-2.801215947E-1,-6.320692301E-1
2.171092306E0,-9.871294022E0,-2.633621991E-1,-6.344634295E-1
2.173761362E0,-9.878476143E0,-2.657563984E-1,-6.344634295E-1
2.175218921E0,-9.864110947E0,-2.681505978E-1,-6.392518282E-1
2.177765344E0,-9.844957352E0,-2.705447972E-1,-6.320692301E-1
2.179334383E0,-9.840168953E0,-2.657563984E-1,-6.416460276E-1
2.181823190E0,-9.847352028E0,-2.633621991E-1,-6.488286853E-1
2.183486844E0,-9.861717224E0,-2.609679997E-1,-6.512228847E-1
2.186089900E0,-9.859322548E0,-2.585737705E-1,-6.464344859E-1
2.187732267E0,-9.864110947E0,-2.633621991E-1,-6.344634295E-1
2.190193477E0,-9.866505623E0,-2.561795712E-1,-6.392518282E-1
2.191648767E0,-9.864110947E0,-2.609679997E-1,-6.416460276E-1
2.194296516E0,-9.864110947E0,-2.633621991E-1,-6.344634295E-1
2.195996075E0,-9.878476143E0,-2.657563984E-1,-6.248866320E-1
2.198374362E0,-9.866505623E0,-2.801215947E-1,-6.033388376E-1
2.199913113E0,-9.873687744E0,-2.873041928E-1,-6.153098345E-1
2.202442631E0,-9.871294022E0,-2.801215947E-1,-6.105214357E-1
2.203924690E0,-9.878476143E0,-2.825157940E-1,-5.889736414E-1
2.206545592E0,-9.890447617E0,-2.729389966E-1,-5.722141862E-1
2.207992844E0,-9.885659218E0,-2.753331959E-1,-5.770025849E-1
2.210648208E0,-9.878476143E0,-2.825157940E-1,-5.746083856E-1
2.212096960E0,-9.892841339E0,-2.849099934E-1,-5.674257874E-1
2.214750862E0,-9.895236015E0,-2.944868207E-1,-5.602431893E-1
2.216381998E0,-9.897629738E0,-2.992752194E-1,-5.410895944E-1
2.218880900E0,-9.897629738E0,-2.825157940E-1,-5.363011956E-1
2.220323767E0,-9.902418137E0,-2.873041928E-1,-5.315127969E-1
2.222984592E0,-9.914389610E0,-2.920926213E-1,-5.267243981E-1
2.224761690E0,-9.909601212E0,-3.112462163E-1,-5.291185975E-1
2.227088285E0,-9.911994934E0,-3.088520169E-1,-5.219359994E-1
2.228751267E0,-9.916783333E0,-2.992752194E-1,-5.267243981E-1
2.231192015E0,-9.926360130E0,-2.896983922E-1,-5.339069963E-1
2.232659960E0,-9.902418137E0,-2.873041928E-1,-5.243301988E-1
2.235296439E0,-9.890447617E0,-2.896983922E-1,-5.243301988E-1
2.236826844E0,-9.888052940E0,-2.873041928E-1,-5.267243981E-1
2.239269998E0,-9.895236015E0,-2.849099934E-1,-5.171475410E-1
2.240919113E0,-9.904812813E0,-2.873041928E-1,-5.219359994E-1
2.243327729E0,-9.911994934E0,-2.801215947E-1,-5.291185975E-1
2.245085883E0,-9.916783333E0,-2.896983922E-1,-5.315127969E-1
2.247620169E0,-9.921571732E0,-2.849099934E-1,-5.434837937E-1
2.249148652E0,-9.923966408E0,-2.825157940E-1,-5.482721925E-1
2.251724169E0,-9.921571732E0,-2.753331959E-1,-5.506663918E-1
2.253293267E0,-9.928754807E0,-2.825157940E-1,-5.482721925E-1
2.255828092E0,-9.921571732E0,-2.825157940E-1,-5.626373887E-1
2.257425036E0,-9.931148529E0,-2.585737705E-1,-5.793967843E-1
2.259949054E0,-9.928754807E0,-2.513911724E-1,-5.793967843E-1
2.261599613E0,-9.931148529E0,-2.489969730E-1,-5.865794420E-1
2.264043190E0,-9.904812813E0,-2.489969730E-1,-5.985504389E-1
2.265533883E0,-9.909601212E0,-2.489969730E-1,-6.009446383E-1
2.267983844E0,-9.909601212E0,-2.513911724E-1,-6.057330370E-1
2.269743344E0,-9.923966408E0,-2.729389966E-1,-6.129156351E-1
2.272260323E0,-9.919178009E0,-2.537853718E-1,-6.177040339E-1
2.273700652E0,-9.928754807E0,-2.489969730E-1,-6.153098345E-1
2.276363823E0,-9.926360130E0,-2.513911724E-1,-6.177040339E-1
2.277984267E0,-9.926360130E0,-2.537853718E-1,-6.153098345E-1
2.280443285E0,-9.916783333E0,-2.370259613E-1,-6.200982332E-1
2.281864075E0,-9.921571732E0,-2.394201756E-1,-6.296750307E-1
2.284512131E0,-9.921571732E0,-2.537853718E-1,-6.224924326E-1
2.286100306E0,-9.914389610E0,-2.442085743E-1,-6.129156351E-1
2.288615784E0,-9.916783333E0,-2.489969730E-1,-6.129156351E-1
2.290032344E0,-9.897629738E0,-2.489969730E-1,-6.200982332E-1
2.292718938E0,-9.888052940E0,-2.370259613E-1,-6.081272364E-1
2.294416806E0,-9.892841339E0,-2.370259613E-1,-6.105214357E-1
2.296823092E0,-9.890447617E0,-2.442085743E-1,-6.153098345E-1
2.298535729E0,-9.895236015E0,-2.274491638E-1,-6.177040339E-1
2.300953669E0,-9.883264542E0,-2.322375625E-1,-6.200982332E-1
2.302675036E0,-9.888052940E0,-2.418143749E-1,-6.248866320E-1
2.305056823E0,-9.883264542E0,-2.466027737E-1,-6.248866320E-1
2.306535190E0,-9.885659218E0,-2.298433632E-1,-6.153098345E-1
2.309155844E0,-9.890447617E0,-2.322375625E-1,-6.105214357E-1
2.310609036E0,-9.888052940E0,-2.681505978E-1,-6.057330370E-1
2.313261746E0,-9.895236015E0,-2.729389966E-1,-6.153098345E-1
2.314705229E0,-9.907206535E0,-2.657563984E-1,-6.129156351E-1
2.317364977E0,-9.911994934E0,-2.681505978E-1,-6.129156351E-1
2.318860113E0,-9.900024414E0,-2.729389966E-1,-6.057330370E-1
2.321378075E0,-9.895236015E0,-2.585737705E-1,-5.985504389E-1
2.322990344E0,-9.883264542E0,-2.681505978E-1,-6.033388376E-1
2.325411921E0,-9.880870819E0,-2.753331959E-1,-5.961562395E-1
2.327061690E0,-9.876082420E0,-2.705447972E-1,-5.961562395E-1
2.329686669E0,-9.861717224E0,-2.633621991E-1,-5.961562395E-1
2.331211383E0,-9.873687744E0,-2.561795712E-1,-5.985504389E-1
2.333758921E0,-9.871294022E0,-2.729389966E-1,-5.961562395E-1
2.335274575E0,-9.871294022E0,-2.777273953E-1,-5.937620401E-1
2.337917438E0,-9.866505623E0,-2.753331959E-1,-5.913678408E-1
2.339398536E0,-9.859322548E0,-2.681505978E-1,-5.793967843E-1
2.342040284E0,-9.859322548E0,-2.657563984E-1,-5.817909837E-1
2.343705383E0,-9.856928825E0,-2.777273953E-1,-5.793967843E-1
2.346025729E0,-9.866505623E0,-2.753331959E-1,-5.746083856E-1
2.347880998E0,-9.859322548E0,-2.681505978E-1,-5.626373887E-1
2.350090613E0,-9.849745750E0,-2.466027737E-1,-5.530605912E-1
2.351706113E0,-9.847352028E0,-2.489969730E-1,-5.626373887E-1
2.354348515E0,-9.852140427E0,-2.442085743E-1,-5.602431893E-1
2.355806421E0,-9.852140427E0,-2.250549644E-1,-5.578489900E-1
2.358451707E0,-9.849745750E0,-2.082955539E-1,-5.506663918E-1
2.360488998E0,-9.868899345E0,-2.298433632E-1,-5.458779931E-1
2.362529130E0,-9.873687744E0,-2.322375625E-1,-5.458779931E-1
2.364275229E0,-9.878476143E0,-2.250549644E-1,-5.410895944E-1
2.366596669E0,-9.868899345E0,-2.370259613E-1,-5.315127969E-1
2.368105613E0,-9.871294022E0,-2.346317619E-1,-5.339069963E-1
2.370698976E0,-9.864110947E0,-2.226607651E-1,-5.386953950E-1
2.372153998E0,-9.864110947E0,-2.178723514E-1,-5.315127969E-1
2.374801476E0,-9.861717224E0,-2.298433632E-1,-5.339069963E-1
2.376254229E0,-9.852140427E0,-2.226607651E-1,-5.506663918E-1
2.378904823E0,-9.842563629E0,-2.274491638E-1,-5.506663918E-1
2.380502690E0,-9.856928825E0,-2.298433632E-1,-5.554547906E-1
2.383034630E0,-9.868899345E0,-2.346317619E-1,-5.578489900E-1
2.384498190E0,-9.856928825E0,-2.274491638E-1,-5.674257874E-1
2.387137861E0,-9.866505623E0,-2.154781520E-1,-5.841852427E-1
2.388871729E0,-9.861717224E0,-2.226607651E-1,-5.865794420E-1
2.391241399E0,-9.868899345E0,-2.130839527E-1,-5.937620401E-1
2.392727613E0,-9.866505623E0,-2.178723514E-1,-5.961562395E-1
2.395345592E0,-9.864110947E0,-2.202665508E-1,-6.057330370E-1
2.396758767E0,-9.876082420E0,-2.130839527E-1,-6.057330370E-1
2.399449092E0,-9.861717224E0,-2.082955539E-1,-6.153098345E-1
2.400906806E0,-9.847352028E0,-2.202665508E-1,-6.129156351E-1
2.403464729E0,-9.856928825E0,-2.202665508E-1,-6.272808313E-1
2.405018421E0,-9.854534149E0,-2.226607651E-1,-6.272808313E-1
2.407511536E0,-9.861717224E0,-2.274491638E-1,-6.320692301E-1
2.409172844E0,-9.852140427E0,-2.202665508E-1,-6.272808313E-1
2.411708421E0,-9.859322548E0,-2.082955539E-1,-6.296750307E-1
2.413225652E0,-9.849745750E0,-2.059013397E-1,-6.224924326E-1
2.415814190E0,-9.859322548E0,-1.963245422E-1,-6.177040339E-1
2.417457613E0,-9.866505623E0,-2.035071403E-1,-6.200982332E-1
2.419978284E0,-9.866505623E0,-2.178723514E-1,-6.153098345E-1
2.421484498E0,-9.873687744E0,-2.202665508E-1,-6.081272364E-1
2.424099745E0,-9.878476143E0,-2.178723514E-1,-6.033388376E-1
2.425758921E0,-9.878476143E0,-2.154781520E-1,-5.961562395E-1
2.428202515E0,-9.871294022E0,-2.154781520E-1,-5.985504389E-1
2.430059036E0,-9.868899345E0,-2.178723514E-1,-6.033388376E-1
2.432224075E0,-9.866505623E0,-2.178723514E-1,-6.009446383E-1
2.433838036E0,-9.873687744E0,-2.154781520E-1,-5.985504389E-1
2.436410015E0,-9.868899345E0,-2.370259613E-1,-5.913678408E-1
2.437948036E0,-9.861717224E0,-2.346317619E-1,-5.865794420E-1
2.440513092E0,-9.873687744E0,-2.322375625E-1,-5.817909837E-1
2.442124729E0,-9.880870819E0,-2.226607651E-1,-5.817909837E-1
2.444590630E0,-9.878476143E0,-2.274491638E-1,-5.937620401E-1
2.446047729E0,-9.883264542E0,-2.466027737E-1,-5.865794420E-1
2.448658515E0,-9.890447617E0,-2.442085743E-1,-5.841852427E-1
2.450188421E0,-9.883264542E0,-2.394201756E-1,-5.770025849E-1
2.452761284E0,-9.883264542E0,-2.537853718E-1,-5.937620401E-1
2.454215152E0,-9.883264542E0,-2.657563984E-1,-5.937620401E-1
2.456864207E0,-9.888052940E0,-2.537853718E-1,-5.698199868E-1
2.458323883E0,-9.888052940E0,-2.657563984E-1,-5.650315881E-1
2.460967284E0,-9.890447617E0,-2.729389966E-1,-5.674257874E-1
2.462516267E0,-9.900024414E0,-2.633621991E-1,-5.626373887E-1
2.465095861E0,-9.890447617E0,-2.537853718E-1,-5.841852427E-1
2.466667690E0,-9.878476143E0,-2.585737705E-1,-5.889736414E-1
2.469198168E0,-9.890447617E0,-2.729389966E-1,-5.841852427E-1
2.470947767E0,-9.897629738E0,-2.849099934E-1,-5.817909837E-1
2.473300861E0,-9.892841339E0,-2.753331959E-1,-5.961562395E-1
2.474740421E0,-9.880870819E0,-2.609679997E-1,-5.937620401E-1
2.477403399E0,-9.866505623E0,-2.753331959E-1,-5.889736414E-1
2.479063152E0,-9.878476143E0,-2.801215947E-1,-5.793967843E-1
2.481506168E0,-9.878476143E0,-2.753331959E-1,-5.817909837E-1
2.483012229E0,-9.873687744E0,-2.705447972E-1,-5.913678408E-1
2.485443113E0,-9.878476143E0,-2.753331959E-1,-5.889736414E-1
2.487029498E0,-9.873687744E0,-2.705447972E-1,-5.889736414E-1
2.489559729E0,-9.888052940E0,-2.705447972E-1,-5.793967843E-1
2.491203344E0,-9.888052940E0,-2.657563984E-1,-5.817909837E-1
2.493752306E0,-9.890447617E0,-2.681505978E-1,-5.889736414E-1
2.495288767E0,-9.885659218E0,-2.585737705E-1,-5.841852427E-1
2.497843806E0,-9.888052940E0,-2.705447972E-1,-5.722141862E-1
2.499354844E0,-9.888052940E0,-2.585737705E-1,-5.865794420E-1
2.502029899E0,-9.890447617E0,-2.513911724E-1,-5.841852427E-1
2.503530959E0,-9.888052940E0,-2.681505978E-1,-5.913678408E-1
2.506016036E0,-9.878476143E0,-2.849099934E-1,-5.913678408E-1
2.507820459E0,-9.890447617E0,-2.873041928E-1,-5.865794420E-1
2.510208344E0,-9.873687744E0,-2.801215947E-1,-5.913678408E-1
2.512066575E0,-9.866505623E0,-2.849099934E-1,-5.937620401E-1
2.514350476E0,-9.876082420E0,-2.777273953E-1,-5.937620401E-1
2.515889306E0,-9.883264542E0,-2.777273953E-1,-5.961562395E-1
2.518453399E0,-9.878476143E0,-2.657563984E-1,-5.937620401E-1
2.519936190E0,-9.873687744E0,-2.657563984E-1,-5.961562395E-1
2.522556130E0,-9.876082420E0,-2.561795712E-1,-5.913678408E-1
2.524160921E0,-9.880870819E0,-2.537853718E-1,-5.937620401E-1
2.526633553E0,-9.859322548E0,-2.466027737E-1,-6.009446383E-1
2.528136652E0,-9.856928825E0,-2.466027737E-1,-6.057330370E-1
2.530701168E0,-9.854534149E0,-2.346317619E-1,-6.200982332E-1
2.532194921E0,-9.876082420E0,-2.489969730E-1,-6.009446383E-1
2.534803860E0,-9.883264542E0,-2.609679997E-1,-6.009446383E-1
2.536348190E0,-9.883264542E0,-2.466027737E-1,-6.057330370E-1
2.538906822E0,-9.885659218E0,-2.442085743E-1,-6.177040339E-1
2.540386959E0,-9.871294022E0,-2.466027737E-1,-6.177040339E-1
2.543009514E0,-9.885659218E0,-2.322375625E-1,-6.129156351E-1
2.544682921E0,-9.892841339E0,-2.394201756E-1,-6.248866320E-1
2.547138283E0,-9.892841339E0,-2.418143749E-1,-6.272808313E-1
2.548581498E0,-9.876082420E0,-2.466027737E-1,-6.129156351E-1
2.551241014E0,-9.868899345E0,-2.394201756E-1,-6.200982332E-1
2.553000921E0,-9.878476143E0,-2.370259613E-1,-6.296750307E-1
2.555343130E0,-9.871294022E0,-2.202665508E-1,-6.272808313E-1
2.556798382E0,-9.866505623E0,-2.274491638E-1,-6.440402865E-1
2.559445860E0,-9.866505623E0,-2.298433632E-1,-6.344634295E-1
2.561027459E0,-9.859322548E0,-2.250549644E-1,-6.344634295E-1
2.563547476E0,-9.866505623E0,-2.442085743E-1,-6.368576288E-1
2.565008844E0,-9.871294022E0,-2.466027737E-1,-6.272808313E-1
2.567511036E0,-9.866505623E0,-2.418143749E-1,-6.296750307E-1
2.569630152E0,-9.856928825E0,-2.250549644E-1,-6.296750307E-1
2.571686959E0,-9.873687744E0,-2.106897533E-1,-6.224924326E-1
2.573264690E0,-9.866505623E0,-2.178723514E-1,-6.177040339E-1
2.575866706E0,-9.856928825E0,-2.130839527E-1,-6.200982332E-1
2.577358575E0,-9.849745750E0,-2.202665508E-1,-6.153098345E-1
2.579909690E0,-9.859322548E0,-2.274491638E-1,-6.177040339E-1
2.581537113E0,-9.864110947E0,-2.346317619E-1,-6.200982332E-1
2.584097822E0,-9.864110947E0,-2.394201756E-1,-6.105214357E-1
2.585634882E0,-9.871294022E0,-2.394201756E-1,-6.081272364E-1
2.588100575E0,-9.868899345E0,-2.418143749E-1,-6.081272364E-1
2.590096036E0,-9.890447617E0,-2.322375625E-1,-6.081272364E-1
2.592320437E0,-9.873687744E0,-2.394201756E-1,-5.913678408E-1
2.593851729E0,-9.876082420E0,-2.370259613E-1,-5.865794420E-1
2.596422245E0,-9.868899345E0,-2.274491638E-1,-5.985504389E-1
2.597891844E0,-9.883264542E0,-2.466027737E-1,-5.961562395E-1
2.600524745E0,-9.892841339E0,-2.489969730E-1,-5.889736414E-1
2.602005498E0,-9.873687744E0,-2.513911724E-1,-5.793967843E-1
2.604626706E0,-9.866505623E0,-2.418143749E-1,-5.793967843E-1
2.606462998E0,-9.876082420E0,-2.322375625E-1,-5.674257874E-1
2.608703552E0,-9.873687744E0,-2.418143749E-1,-5.793967843E-1
2.610125652E0,-9.880870819E0,-2.537853718E-1,-5.817909837E-1
2.612770360E0,-9.861717224E0,-2.633621991E-1,-5.698199868E-1
2.614235113E0,-9.868899345E0,-2.753331959E-1,-5.626373887E-1
2.616871976E0,-9.883264542E0,-2.753331959E-1,-5.746083856E-1
2.618363382E0,-9.880870819E0,-2.729389966E-1,-5.674257874E-1
2.620974091E0,-9.892841339E0,-2.729389966E-1,-5.722141862E-1
2.622409152E0,-9.895236015E0,-2.729389966E-1,-5.817909837E-1
2.625076129E0,-9.883264542E0,-2.537853718E-1,-5.817909837E-1
2.626721152E0,-9.885659218E0,-2.633621991E-1,-5.793967843E-1
2.629204437E0,-9.888052940E0,-2.633621991E-1,-5.889736414E-1
2.630857844E0,-9.883264542E0,-2.657563984E-1,-5.841852427E-1
2.633307091E0,-9.888052940E0,-2.657563984E-1,-5.817909837E-1
2.634926805E0,-9.878476143E0,-2.537853718E-1,-5.889736414E-1
2.637395844E0,-9.885659218E0,-2.561795712E-1,-5.770025849E-1
2.638830652E0,-9.885659218E0,-2.609679997E-1,-5.722141862E-1
2.641511360E0,-9.880870819E0,-2.753331959E-1,-5.817909837E-1
2.642939652E0,-9.878476143E0,-2.633621991E-1,-5.817909837E-1
2.645614591E0,-9.880870819E0,-2.705447972E-1,-5.770025849E-1
2.647180152E0,-9.878476143E0,-2.777273953E-1,-5.793967843E-1
2.649548575E0,-9.873687744E0,-2.777273953E-1,-5.889736414E-1
2.651153921E0,-9.866505623E0,-2.657563984E-1,-5.817909837E-1
2.653733613E0,-9.873687744E0,-2.466027737E-1,-5.793967843E-1
2.655308998E0,-9.871294022E0,-2.561795712E-1,-5.841852427E-1
2.657861113E0,-9.868899345E0,-2.513911724E-1,-5.746083856E-1
2.659481690E0,-9.868899345E0,-2.537853718E-1,-5.722141862E-1
2.661962344E0,-9.868899345E0,-2.561795712E-1,-5.793967843E-1
2.663486767E0,-9.885659218E0,-2.418143749E-1,-5.650315881E-1
2.666140168E0,-9.880870819E0,-2.370259613E-1,-5.602431893E-1
2.668013075E0,-9.885659218E0,-2.298433632E-1,-5.650315881E-1
2.670258398E0,-9.876082420E0,-2.442085743E-1,-5.674257874E-1
2.671998344E0,-9.892841339E0,-2.466027737E-1,-5.722141862E-1
2.674235998E0,-9.900024414E0,-2.466027737E-1,-5.674257874E-1
2.675866613E0,-9.892841339E0,-2.442085743E-1,-5.770025849E-1
2.678390882E0,-9.883264542E0,-2.466027737E-1,-5.650315881E-1
2.679896652E0,-9.890447617E0,-2.418143749E-1,-5.674257874E-1
2.682566129E0,-9.883264542E0,-2.370259613E-1,-5.841852427E-1
2.683991536E0,-9.895236015E0,-2.418143749E-1,-5.817909837E-1
2.686668744E0,-9.907206535E0,-2.466027737E-1,-5.889736414E-1
2.688268844E0,-9.921571732E0,-2.633621991E-1,-5.961562395E-1
2.690747706E0,-9.916783333E0,-2.466027737E-1,-6.033388376E-1
2.692159613E0,-9.902418137E0,-2.394201756E-1,-5.985504389E-1
2.694815591E0,-9.902418137E0,-2.537853718E-1,-6.009446383E-1
2.696281921E0,-9.897629738E0,-2.394201756E-1,-6.105214357E-1
2.698917898E0,-9.888052940E0,-2.322375625E-1,-6.009446383E-1
2.700385152E0,-9.878476143E0,-2.274491638E-1,-6.081272364E-1
2.703020052E0,-9.873687744E0,-2.274491638E-1,-6.057330370E-1
2.704484382E0,-9.885659218E0,-2.298433632E-1,-6.129156351E-1
2.707122244E0,-9.897629738E0,-2.322375625E-1,-6.105214357E-1
2.708662652E0,-9.890447617E0,-2.298433632E-1,-5.985504389E-1
2.711251167E0,-9.864110947E0,-2.226607651E-1,-6.033388376E-1
2.712928690E0,-9.859322548E0,-2.322375625E-1,-6.105214357E-1
2.715354244E0,-9.885659218E0,-2.513911724E-1,-6.009446383E-1
2.716838652E0,-9.885659218E0,-2.322375625E-1,-6.009446383E-1
2.719456898E0,-9.873687744E0,-2.370259613E-1,-5.985504389E-1
2.721103690E0,-9.856928825E0,-2.513911724E-1,-5.889736414E-1
2.723560091E0,-9.864110947E0,-2.466027737E-1,-5.722141862E-1
2.724966536E0,-9.861717224E0,-2.442085743E-1,-5.698199868E-1
2.727663437E0,-9.859322548E0,-2.561795712E-1,-5.698199868E-1
2.729109344E0,-9.868899345E0,-2.561795712E-1,-5.746083856E-1
2.731661421E0,-9.868899345E0,-2.657563984E-1,-5.650315881E-1
2.733215382E0,-9.873687744E0,-2.633621991E-1,-5.578489900E-1
2.735710075E0,-9.873687744E0,-2.609679997E-1,-5.482721925E-1
2.737358421E0,-9.878476143E0,-2.729389966E-1,-5.578489900E-1
2.739956267E0,-9.873687744E0,-2.729389966E-1,-5.578489900E-1
2.741429498E0,-9.873687744E0,-2.777273953E-1,-5.650315881E-1
2.744003613E0,-9.885659218E0,-2.849099934E-1,-5.554547906E-1
2.745536498E0,-9.892841339E0,-2.777273953E-1,-5.506663918E-1
2.748189975E0,-9.885659218E0,-2.657563984E-1,-5.530605912E-1
2.749944344E0,-9.895236015E0,-2.729389966E-1,-5.434837937E-1
2.752282382E0,-9.926360130E0,-2.609679997E-1,-5.458779931E-1
2.753905382E0,-9.923966408E0,-2.561795712E-1,-5.506663918E-1
2.756305075E0,-9.904812813E0,-2.561795712E-1,-5.530605912E-1
2.758050728E0,-9.911994934E0,-2.633621991E-1,-5.578489900E-1
2.760448921E0,-9.909601212E0,-2.729389966E-1,-5.626373887E-1
2.762054113E0,-9.892841339E0,-2.849099934E-1,-5.602431893E-1
2.764618629E0,-9.892841339E0,-2.609679997E-1,-5.602431893E-1
2.766095459E0,-9.885659218E0,-2.561795712E-1,-5.626373887E-1
2.768719975E0,-9.871294022E0,-2.657563984E-1,-5.554547906E-1
2.770565536E0,-9.868899345E0,-2.729389966E-1,-5.506663918E-1
2.772797244E0,-9.876082420E0,-2.657563984E-1,-5.410895944E-1
2.774193305E0,-9.883264542E0,-2.681505978E-1,-5.315127969E-1
2.776865090E0,-9.873687744E0,-2.681505978E-1,-5.243301988E-1
2.778337036E0,-9.868899345E0,-2.705447972E-1,-5.291185975E-1
2.780967475E0,-9.871294022E0,-2.705447972E-1,-5.410895944E-1
2.782411228E0,-9.873687744E0,-2.585737705E-1,-5.267243981E-1
2.785069167E0,-9.861717224E0,-2.585737705E-1,-5.267243981E-1
2.786641190E0,-9.861717224E0,-2.633621991E-1,-5.339069963E-1
2.789170859E0,-9.871294022E0,-2.609679997E-1,-5.386953950E-1
2.790764536E0,-9.873687744E0,-2.489969730E-1,-5.530605912E-1
2.793300975E0,-9.861717224E0,-2.466027737E-1,-5.650315881E-1
2.794766651E0,-9.864110947E0,-2.561795712E-1,-5.698199868E-1
2.797403359E0,-9.856928825E0,-2.513911724E-1,-5.817909837E-1
2.798899075E0,-9.868899345E0,-2.513911724E-1,-5.961562395E-1
2.801495536E0,-9.876082420E0,-2.513911724E-1,-6.177040339E-1
2.802929921E0,-9.861717224E0,-2.346317619E-1,-6.272808313E-1
2.805608129E0,-9.859322548E0,-2.370259613E-1,-6.296750307E-1
2.807004921E0,-9.856928825E0,-2.442085743E-1,-6.296750307E-1
2.809710398E0,-9.888052940E0,-2.346317619E-1,-6.416460276E-1
2.811113498E0,-9.873687744E0,-2.250549644E-1,-6.368576288E-1
2.813598728E0,-9.871294022E0,-2.202665508E-1,-6.392518282E-1
2.815209151E0,-9.873687744E0,-2.274491638E-1,-6.584054828E-1
2.817698921E0,-9.873687744E0,-2.250549644E-1,-6.488286853E-1
2.819350344E0,-9.880870819E0,-2.226607651E-1,-6.488286853E-1
2.822031282E0,-9.892841339E0,-2.202665508E-1,-6.464344859E-1
2.823454998E0,-9.888052940E0,-2.154781520E-1,-6.512228847E-1
2.826019805E0,-9.892841339E0,-2.154781520E-1,-6.536170840E-1
2.827537767E0,-9.883264542E0,-2.082955539E-1,-6.512228847E-1
2.830261398E0,-9.885659218E0,-2.274491638E-1,-6.512228847E-1
2.831684267E0,-9.883264542E0,-2.178723514E-1,-6.488286853E-1
2.834192959E0,-9.880870819E0,-2.298433632E-1,-6.488286853E-1
2.835957036E0,-9.876082420E0,-2.250549644E-1,-6.488286853E-1
2.838301613E0,-9.873687744E0,-2.178723514E-1,-6.464344859E-1
2.839918805E0,-9.878476143E0,-2.274491638E-1,-6.416460276E-1
2.842372651E0,-9.878476143E0,-2.394201756E-1,-6.368576288E-1
2.843965344E0,-9.871294022E0,-2.346317619E-1,-6.368576288E-1
2.846689436E0,-9.866505623E0,-2.370259613E-1,-6.344634295E-1
2.848081728E0,-9.876082420E0,-2.250549644E-1,-6.153098345E-1
2.850792552E0,-9.888052940E0,-2.322375625E-1,-6.224924326E-1
2.852341767E0,-9.873687744E0,-2.394201756E-1,-6.153098345E-1
2.854871013E0,-9.883264542E0,-2.418143749E-1,-6.033388376E-1
2.856266267E0,-9.892841339E0,-2.513911724E-1,-5.937620401E-1
2.858940205E0,-9.888052940E0,-2.394201756E-1,-5.913678408E-1
2.860431382E0,-9.890447617E0,-2.489969730E-1,-5.865794420E-1
2.863043359E0,-9.883264542E0,-2.609679997E-1,-5.722141862E-1
2.864456113E0,-9.883264542E0,-2.561795712E-1,-5.602431893E-1
2.867146628E0,-9.900024414E0,-2.609679997E-1,-5.746083856E-1
2.868569844E0,-9.878476143E0,-2.585737705E-1,-5.578489900E-1
2.871249436E0,-9.897629738E0,-2.489969730E-1,-5.626373887E-1
2.872829728E0,-9.902418137E0,-2.513911724E-1,-5.626373887E-1
2.875379244E0,-9.885659218E0,-2.585737705E-1,-5.578489900E-1
2.877376498E0,-9.880870819E0,-2.633621991E-1,-5.506663918E-1
2.879482436E0,-9.876082420E0,-2.537853718E-1,-5.434837937E-1
2.881010728E0,-9.892841339E0,-2.657563984E-1,-5.554547906E-1
2.883584667E0,-9.880870819E0,-2.777273953E-1,-5.554547906E-1
2.885009305E0,-9.871294022E0,-2.801215947E-1,-5.578489900E-1
2.887687282E0,-9.859322548E0,-2.585737705E-1,-5.578489900E-1
2.889103882E0,-9.866505623E0,-2.609679997E-1,-5.578489900E-1
2.891790359E0,-9.873687744E0,-2.705447972E-1,-5.602431893E-1
2.893229267E0,-9.861717224E0,-2.657563984E-1,-5.722141862E-1
2.895713690E0,-9.859322548E0,-2.513911724E-1,-5.746083856E-1
2.897461844E0,-9.876082420E0,-2.633621991E-1,-5.793967843E-1
2.899879767E0,-9.888052940E0,-2.729389966E-1,-5.841852427E-1
2.901518498E0,-9.892841339E0,-2.753331959E-1,-5.913678408E-1
2.904076921E0,-9.883264542E0,-2.657563984E-1,-6.009446383E-1
2.905574959E0,-9.871294022E0,-2.681505978E-1,-6.009446383E-1
2.908212513E0,-9.878476143E0,-2.609679997E-1,-6.177040339E-1
2.909817190E0,-9.876082420E0,-2.513911724E-1,-6.248866320E-1
2.912315513E0,-9.873687744E0,-2.466027737E-1,-6.272808313E-1
2.913829574E0,-9.880870819E0,-2.513911724E-1,-6.153098345E-1
2.916282690E0,-9.880870819E0,-2.442085743E-1,-6.224924326E-1
2.917963459E0,-9.878476143E0,-2.322375625E-1,-6.200982332E-1
2.920535767E0,-9.885659218E0,-2.274491638E-1,-6.224924326E-1
2.922000305E0,-9.897629738E0,-2.418143749E-1,-6.177040339E-1
2.924510190E0,-9.890447617E0,-2.418143749E-1,-6.153098345E-1
2.926061228E0,-9.890447617E0,-2.394201756E-1,-6.105214357E-1
2.928741359E0,-9.900024414E0,-2.274491638E-1,-6.081272364E-1
2.930168382E0,-9.907206535E0,-2.082955539E-1,-5.961562395E-1
2.932843974E0,-9.909601212E0,-2.011129409E-1,-5.913678408E-1
2.934451190E0,-9.909601212E0,-2.011129409E-1,-5.985504389E-1
2.936921667E0,-9.914389610E0,-2.106897533E-1,-5.985504389E-1
2.938354344E0,-9.914389610E0,-2.178723514E-1,-6.057330370E-1
2.940988820E0,-9.916783333E0,-2.178723514E-1,-6.033388376E-1
2.942473690E0,-9.909601212E0,-2.154781520E-1,-5.985504389E-1
2.945090244E0,-9.890447617E0,-2.178723514E-1,-5.985504389E-1
2.946573305E0,-9.897629738E0,-2.106897533E-1,-5.961562395E-1
2.949192013E0,-9.895236015E0,-2.035071403E-1,-6.033388376E-1
2.950977882E0,-9.897629738E0,-2.059013397E-1,-6.057330370E-1
2.953293936E0,-9.900024414E0,-2.154781520E-1,-5.985504389E-1
2.954882844E0,-9.909601212E0,-2.178723514E-1,-5.961562395E-1
2.957422743E0,-9.909601212E0,-2.154781520E-1,-6.081272364E-1
2.958962767E0,-9.909601212E0,-2.106897533E-1,-6.105214357E-1
2.961525167E0,-9.914389610E0,-2.082955539E-1,-6.033388376E-1
2.963040959E0,-9.902418137E0,-1.843535304E-1,-6.153098345E-1
2.965627628E0,-9.904812813E0,-1.819593310E-1,-6.105214357E-1
2.967064998E0,-9.911994934E0,-1.939303428E-1,-6.033388376E-1
2.969730897E0,-9.892841339E0,-2.082955539E-1,-5.985504389E-1
2.971249267E0,-9.895236015E0,-2.178723514E-1,-5.865794420E-1
2.973834282E0,-9.883264542E0,-2.250549644E-1,-5.889736414E-1
2.975269190E0,-9.888052940E0,-2.322375625E-1,-5.937620401E-1
2.977764151E0,-9.871294022E0,-2.274491638E-1,-6.057330370E-1
2.979485151E0,-9.883264542E0,-2.178723514E-1,-6.033388376E-1
2.981864536E0,-9.888052940E0,-2.059013397E-1,-5.961562395E-1
2.983687613E0,-9.888052940E0,-2.011129409E-1,-5.937620401E-1
2.986034459E0,-9.880870819E0,-2.059013397E-1,-5.889736414E-1
2.987621344E0,-9.866505623E0,-2.059013397E-1,-5.817909837E-1
2.990258243E0,-9.880870819E0,-2.106897533E-1,-5.793967843E-1
2.991779844E0,-9.883264542E0,-2.106897533E-1,-5.770025849E-1
2.994360051E0,-9.885659218E0,-2.178723514E-1,-5.841852427E-1
2.995867805E0,-9.866505623E0,-2.274491638E-1,-5.817909837E-1
2.998418998E0,-9.866505623E0,-2.250549644E-1,-5.817909837E-1
2.999912151E0,-9.852140427E0,-2.226607651E-1,-5.793967843E-1
3.002581320E0,-9.849745750E0,-2.154781520E-1,-5.722141862E-1
3.004152805E0,-9.849745750E0,-2.202665508E-1,-5.770025849E-1
3.006587267E0,-9.847352028E0,-2.130839527E-1,-5.722141862E-1
3.008157728E0,-9.837775230E0,-2.106897533E-1,-5.698199868E-1
3.010786820E0,-9.849745750E0,-2.274491638E-1,-5.674257874E-1
3.012401036E0,-9.844957352E0,-2.274491638E-1,-5.698199868E-1
3.014888782E0,-9.852140427E0,-2.322375625E-1,-5.554547906E-1
3.016499267E0,-9.835380554E0,-2.346317619E-1,-5.578489900E-1
3.018966128E0,-9.825803757E0,-2.394201756E-1,-5.626373887E-1
3.020365228E0,-9.835380554E0,-2.442085743E-1,-5.602431893E-1
3.023033436E0,-9.852140427E0,-2.418143749E-1,-5.530605912E-1
3.024501613E0,-9.854534149E0,-2.298433632E-1,-5.578489900E-1
3.027135397E0,-9.842563629E0,-2.370259613E-1,-5.530605912E-1
3.028583690E0,-9.849745750E0,-2.442085743E-1,-5.626373887E-1
3.031236743E0,-9.864110947E0,-2.442085743E-1,-5.650315881E-1
3.032689151E0,-9.873687744E0,-2.561795712E-1,-5.650315881E-1
3.035338628E0,-9.868899345E0,-2.394201756E-1,-5.602431893E-1
3.037182536E0,-9.868899345E0,-2.633621991E-1,-5.650315881E-1
3.039467551E0,-9.866505623E0,-2.585737705E-1,-5.698199868E-1
3.041051190E0,-9.878476143E0,-2.346317619E-1,-5.674257874E-1
3.043569243E0,-9.897629738E0,-2.442085743E-1,-5.626373887E-1
3.045465767E0,-9.892841339E0,-2.418143749E-1,-5.602431893E-1
3.047671166E0,-9.878476143E0,-2.370259613E-1,-5.770025849E-1
3.049160728E0,-9.876082420E0,-2.298433632E-1,-5.746083856E-1
3.051773512E0,-9.880870819E0,-2.202665508E-1,-5.865794420E-1
3.053179767E0,-9.873687744E0,-2.298433632E-1,-5.817909837E-1
3.055876397E0,-9.873687744E0,-2.370259613E-1,-5.770025849E-1
3.057352459E0,-9.873687744E0,-2.370259613E-1,-5.817909837E-1
3.059846228E0,-9.876082420E0,-2.394201756E-1,-5.889736414E-1
3.061427921E0,-9.866505623E0,-2.442085743E-1,-5.865794420E-1
3.063928651E0,-9.883264542E0,-2.370259613E-1,-5.865794420E-1
3.065564997E0,-9.880870819E0,-2.226607651E-1,-5.841852427E-1
3.068198397E0,-9.888052940E0,-2.489969730E-1,-5.841852427E-1
3.069755190E0,-9.876082420E0,-2.466027737E-1,-5.889736414E-1
3.072292267E0,-9.878476143E0,-2.537853718E-1,-5.937620401E-1
3.073779421E0,-9.885659218E0,-2.346317619E-1,-5.937620401E-1
3.076428935E0,-9.885659218E0,-2.274491638E-1,-5.961562395E-1
3.077979882E0,-9.888052940E0,-2.274491638E-1,-5.937620401E-1
3.080451421E0,-9.895236015E0,-2.298433632E-1,-5.841852427E-1
3.082011421E0,-9.911994934E0,-2.346317619E-1,-5.817909837E-1
3.084549074E0,-9.911994934E0,-2.346317619E-1,-5.841852427E-1
3.086234651E0,-9.888052940E0,-2.250549644E-1,-5.722141862E-1
3.088580728E0,-9.895236015E0,-2.202665508E-1,-5.746083856E-1
3.090194190E0,-9.892841339E0,-2.274491638E-1,-5.793967843E-1
3.092862628E0,-9.885659218E0,-2.274491638E-1,-5.817909837E-1
3.094395497E0,-9.888052940E0,-2.298433632E-1,-5.865794420E-1
3.096964781E0,-9.868899345E0,-2.394201756E-1,-5.961562395E-1
3.098571459E0,-9.864110947E0,-2.322375625E-1,-5.841852427E-1
3.101042089E0,-9.876082420E0,-2.298433632E-1,-5.913678408E-1
3.102545459E0,-9.876082420E0,-2.202665508E-1,-5.913678408E-1
3.105108935E0,-9.880870819E0,-2.226607651E-1,-5.841852427E-1
3.106585497E0,-9.864110947E0,-2.226607651E-1,-5.913678408E-1
3.109210743E0,-9.868899345E0,-2.274491638E-1,-5.865794420E-1
3.110782305E0,-9.868899345E0,-2.346317619E-1,-5.889736414E-1
3.113313166E0,-9.883264542E0,-2.322375625E-1,-5.889736414E-1
3.114782382E0,-9.888052940E0,-2.298433632E-1,-6.009446383E-1
3.117416243E0,-9.880870819E0,-2.274491638E-1,-6.033388376E-1
3.119242074E0,-9.864110947E0,-2.250549644E-1,-6.009446383E-1
3.121546012E0,-9.878476143E0,-2.202665508E-1,-6.009446383E-1
3.122995151E0,-9.880870819E0,-2.130839527E-1,-5.793967843E-1
3.125649166E0,-9.878476143E0,-2.250549644E-1,-5.770025849E-1
3.127508997E0,-9.873687744E0,-2.226607651E-1,-5.770025849E-1
3.129751974E0,-9.861717224E0,-2.298433632E-1,-5.602431893E-1
3.131209805E0,-9.849745750E0,-2.370259613E-1,-5.650315881E-1
3.133855550E0,-9.864110947E0,-2.346317619E-1,-5.578489900E-1
3.135262151E0,-9.868899345E0,-2.346317619E-1,-5.530605912E-1
3.137959089E0,-9.864110947E0,-2.346317619E-1,-5.530605912E-1
3.139359920E0,-9.849745750E0,-2.418143749E-1,-5.482721925E-1
3.141870036E0,-9.856928825E0,-2.322375625E-1,-5.578489900E-1
3.143458651E0,-9.861717224E0,-2.298433632E-1,-5.506663918E-1
3.145984728E0,-9.864110947E0,-2.298433632E-1,-5.482721925E-1
3.147678844E0,-9.859322548E0,-2.489969730E-1,-5.434837937E-1
3.150178344E0,-9.852140427E0,-2.489969730E-1,-5.410895944E-1
3.151660113E0,-9.868899345E0,-2.442085743E-1,-5.410895944E-1
3.154238344E0,-9.873687744E0,-2.561795712E-1,-5.506663918E-1
3.155786574E0,-9.864110947E0,-2.537853718E-1,-5.482721925E-1
3.158488935E0,-9.871294022E0,-2.513911724E-1,-5.554547906E-1
3.159896190E0,-9.866505623E0,-2.322375625E-1,-5.602431893E-1
3.162395613E0,-9.864110947E0,-2.466027737E-1,-5.434837937E-1
3.164004613E0,-9.859322548E0,-2.489969730E-1,-5.458779931E-1
3.166493767E0,-9.885659218E0,-2.466027737E-1,-5.530605912E-1
3.168135036E0,-9.892841339E0,-2.489969730E-1,-5.602431893E-1
3.170582767E0,-9.880870819E0,-2.466027737E-1,-5.530605912E-1
3.172197074E0,-9.885659218E0,-2.466027737E-1,-5.506663918E-1
3.174915781E0,-9.876082420E0,-2.466027737E-1,-5.482721925E-1
3.176296997E0,-9.878476143E0,-2.609679997E-1,-5.458779931E-1
3.179018473E0,-9.873687744E0,-2.513911724E-1,-5.554547906E-1
3.180570613E0,-9.871294022E0,-2.418143749E-1,-5.458779931E-1
3.183096050E0,-9.883264542E0,-2.489969730E-1,-5.530605912E-1
3.184442844E0,-9.895236015E0,-2.513911724E-1,-5.458779931E-1
3.187164204E0,-9.900024414E0,-2.729389966E-1,-5.434837937E-1
3.188575574E0,-9.904812813E0,-2.657563984E-1,-5.458779931E-1
3.191266704E0,-9.902418137E0,-2.466027737E-1,-5.506663918E-1
3.192641420E0,-9.909601212E0,-2.513911724E-1,-5.434837937E-1
3.195369204E0,-9.897629738E0,-2.585737705E-1,-5.602431893E-1
3.196785151E0,-9.895236015E0,-2.537853718E-1,-5.578489900E-1
3.199471589E0,-9.895236015E0,-2.585737705E-1,-5.506663918E-1
3.200974267E0,-9.900024414E0,-2.561795712E-1,-5.578489900E-1
3.203603358E0,-9.888052940E0,-2.609679997E-1,-5.506663918E-1
3.204991420E0,-9.883264542E0,-2.466027737E-1,-5.506663918E-1
3.207706550E0,-9.888052940E0,-2.609679997E-1,-5.482721925E-1
3.209141959E0,-9.888052940E0,-2.561795712E-1,-5.506663918E-1
3.211786882E0,-9.885659218E0,-2.633621991E-1,-5.458779931E-1
3.213202228E0,-9.897629738E0,-2.561795712E-1,-5.458779931E-1
3.215912435E0,-9.902418137E0,-2.418143749E-1,-5.434837937E-1
3.217298382E0,-9.900024414E0,-2.418143749E-1,-5.410895944E-1
3.220015089E0,-9.904812813E0,-2.537853718E-1,-5.386953950E-1
3.221412036E0,-9.902418137E0,-2.657563984E-1,-5.315127969E-1
3.223913843E0,-9.897629738E0,-2.777273953E-1,-5.267243981E-1
3.225574151E0,-9.876082420E0,-2.633621991E-1,-5.339069963E-1
3.228001151E0,-9.864110947E0,-2.681505978E-1,-5.363011956E-1
3.229660843E0,-9.864110947E0,-2.681505978E-1,-5.267243981E-1
3.232304767E0,-9.864110947E0,-2.561795712E-1,-5.458779931E-1
3.233744613E0,-9.849745750E0,-2.681505978E-1,-5.482721925E-1
3.236349613E0,-9.856928825E0,-2.633621991E-1,-5.554547906E-1
3.237934805E0,-9.868899345E0,-2.537853718E-1,-5.578489900E-1
3.240542089E0,-9.861717224E0,-2.609679997E-1,-5.602431893E-1
3.241957382E0,-9.854534149E0,-2.609679997E-1,-5.530605912E-1
3.244447190E0,-9.856928825E0,-2.657563984E-1,-5.482721925E-1
3.246057574E0,-9.859322548E0,-2.513911724E-1,-5.506663918E-1
3.248552882E0,-9.852140427E0,-2.609679997E-1,-5.602431893E-1
3.250186997E0,-9.852140427E0,-2.681505978E-1,-5.578489900E-1
3.252668382E0,-9.864110947E0,-2.609679997E-1,-5.482721925E-1
3.254251305E0,-9.861717224E0,-2.609679997E-1,-5.554547906E-1
3.256970473E0,-9.876082420E0,-2.657563984E-1,-5.602431893E-1
3.258357959E0,-9.880870819E0,-2.394201756E-1,-5.626373887E-1
3.261073281E0,-9.878476143E0,-2.489969730E-1,-5.578489900E-1
3.262639651E0,-9.861717224E0,-2.609679997E-1,-5.626373887E-1
3.265151242E0,-9.873687744E0,-2.633621991E-1,-5.530605912E-1
3.266497920E0,-9.885659218E0,-2.681505978E-1,-5.530605912E-1
3.269219165E0,-9.864110947E0,-2.633621991E-1,-5.458779931E-1
3.270635190E0,-9.861717224E0,-2.657563984E-1,-5.386953950E-1
3.273322165E0,-9.864110947E0,-2.561795712E-1,-5.291185975E-1
3.274710459E0,-9.873687744E0,-2.633621991E-1,-5.267243981E-1
3.277425165E0,-9.876082420E0,-2.609679997E-1,-5.219359994E-1
3.278823613E0,-9.885659218E0,-2.561795712E-1,-5.243301988E-1
3.281527973E0,-9.885659218E0,-2.537853718E-1,-5.123591423E-1
3.283058497E0,-9.861717224E0,-2.537853718E-1,-5.219359994E-1
3.285659088E0,-9.861717224E0,-2.633621991E-1,-5.243301988E-1
3.287075228E0,-9.871294022E0,-2.729389966E-1,-5.123591423E-1
3.289761473E0,-9.868899345E0,-2.705447972E-1,-4.955997467E-1
3.291228382E0,-9.876082420E0,-2.729389966E-1,-4.884171486E-1
3.293863704E0,-9.878476143E0,-2.705447972E-1,-4.908113480E-1
3.295346420E0,-9.878476143E0,-2.729389966E-1,-4.812345505E-1
3.297966473E0,-9.878476143E0,-2.753331959E-1,-4.764461517E-1
3.299397767E0,-9.892841339E0,-2.777273953E-1,-4.788403511E-1
3.302068781E0,-9.873687744E0,-2.825157940E-1,-4.884171486E-1
3.303504690E0,-9.873687744E0,-2.849099934E-1,-4.884171486E-1
3.306038805E0,-9.880870819E0,-2.825157940E-1,-4.836287498E-1
3.307746459E0,-9.880870819E0,-2.801215947E-1,-4.860229492E-1
3.310116190E0,-9.888052940E0,-2.801215947E-1,-4.836287498E-1
3.311720613E0,-9.892841339E0,-2.873041928E-1,-4.860229492E-1
3.314388319E0,-9.885659218E0,-2.968810201E-1,-5.003881454E-1
3.315871074E0,-9.890447617E0,-2.849099934E-1,-5.027823448E-1
3.318456305E0,-9.885659218E0,-2.705447972E-1,-5.075707436E-1
3.319919805E0,-9.864110947E0,-2.777273953E-1,-5.147533417E-1
3.322618127E0,-9.873687744E0,-2.873041928E-1,-5.219359994E-1
3.324265228E0,-9.866505623E0,-2.896983922E-1,-5.267243981E-1
3.326598997E0,-9.868899345E0,-2.968810201E-1,-5.291185975E-1
3.328288882E0,-9.859322548E0,-2.992752194E-1,-5.339069963E-1
3.330664382E0,-9.873687744E0,-2.920926213E-1,-5.291185975E-1
3.332334190E0,-9.873687744E0,-2.896983922E-1,-5.386953950E-1
3.334771728E0,-9.866505623E0,-2.825157940E-1,-5.482721925E-1
3.336447651E0,-9.864110947E0,-2.920926213E-1,-5.458779931E-1
3.339044665E0,-9.873687744E0,-2.753331959E-1,-5.578489900E-1
3.340479459E0,-9.883264542E0,-2.801215947E-1,-5.482721925E-1
3.343147204E0,-9.866505623E0,-2.825157940E-1,-5.554547906E-1
3.344819190E0,-9.868899345E0,-2.825157940E-1,-5.506663918E-1
3.347225011E0,-9.883264542E0,-2.729389966E-1,-5.458779931E-1
3.348689305E0,-9.871294022E0,-2.609679997E-1,-5.458779931E-1
3.351292896E0,-9.866505623E0,-2.633621991E-1,-5.530605912E-1
3.352999690E0,-9.859322548E0,-2.705447972E-1,-5.530605912E-1
3.355395127E0,-9.856928825E0,-2.537853718E-1,-5.482721925E-1
3.356867151E0,-9.873687744E0,-2.633621991E-1,-5.434837937E-1
3.359497088E0,-9.864110947E0,-2.705447972E-1,-5.530605912E-1
3.360977574E0,-9.844957352E0,-2.849099934E-1,-5.578489900E-1
3.363599857E0,-9.840168953E0,-2.801215947E-1,-5.698199868E-1
3.365130151E0,-9.871294022E0,-2.849099934E-1,-5.650315881E-1
3.367728857E0,-9.880870819E0,-2.801215947E-1,-5.746083856E-1
3.369388997E0,-9.878476143E0,-2.729389966E-1,-5.817909837E-1
3.371831626E0,-9.871294022E0,-2.609679997E-1,-5.889736414E-1
3.373299728E0,-9.864110947E0,-2.681505978E-1,-5.722141862E-1
3.375934896E0,-9.876082420E0,-2.729389966E-1,-5.817909837E-1
3.377454690E0,-9.873687744E0,-2.681505978E-1,-5.841852427E-1
3.380038703E0,-9.861717224E0,-2.920926213E-1,-5.674257874E-1
3.381533151E0,-9.868899345E0,-2.920926213E-1,-5.626373887E-1
3.384142011E0,-9.854534149E0,-2.944868207E-1,-5.602431893E-1
3.385616228E0,-9.861717224E0,-2.873041928E-1,-5.626373887E-1
3.388102228E0,-9.844957352E0,-3.040636182E-1,-5.482721925E-1
3.389695343E0,-9.832986832E0,-3.112462163E-1,-5.434837937E-1
3.392361203E0,-9.830592155E0,-3.327940404E-1,-5.506663918E-1
3.393986997E0,-9.844957352E0,-3.351882398E-1,-5.482721925E-1
3.396463396E0,-9.847352028E0,-3.423708379E-1,-5.482721925E-1
3.397912420E0,-9.859322548E0,-3.256114423E-1,-5.602431893E-1
3.400483959E0,-9.852140427E0,-3.327940404E-1,-5.458779931E-1
3.402002497E0,-9.861717224E0,-3.280056417E-1,-5.410895944E-1
3.404669011E0,-9.866505623E0,-3.375824392E-1,-5.434837937E-1
3.406188843E0,-9.859322548E0,-3.543418646E-1,-5.363011956E-1
3.408789665E0,-9.868899345E0,-3.543418646E-1,-5.410895944E-1
3.410378420E0,-9.878476143E0,-3.615244627E-1,-5.339069963E-1
3.412793690E0,-9.873687744E0,-3.782838583E-1,-5.315127969E-1
3.414427382E0,-9.868899345E0,-3.782838583E-1,-5.171475410E-1
3.416847690E0,-9.866505623E0,-3.687070608E-1,-5.051765442E-1
3.418430228E0,-9.883264542E0,-3.854664862E-1,-5.075707436E-1
3.421097126E0,-9.902418137E0,-3.711012602E-1,-5.267243981E-1
3.422692843E0,-9.909601212E0,-3.615244627E-1,-5.315127969E-1
3.425199703E0,-9.888052940E0,-3.639186621E-1,-5.339069963E-1
3.426799382E0,-9.900024414E0,-3.687070608E-1,-5.386953950E-1
3.429277088E0,-9.900024414E0,-3.615244627E-1,-5.482721925E-1
3.430711343E0,-9.916783333E0,-3.615244627E-1,-5.506663918E-1
3.433344703E0,-9.904812813E0,-3.734954596E-1,-5.482721925E-1
3.434785036E0,-9.900024414E0,-3.567360640E-1,-5.506663918E-1
3.437447703E0,-9.902418137E0,-3.591302633E-1,-5.578489900E-1
3.439100266E0,-9.904812813E0,-3.495534360E-1,-5.650315881E-1
3.441550819E0,-9.904812813E0,-3.519476354E-1,-5.698199868E-1
3.443126113E0,-9.900024414E0,-3.567360640E-1,-5.770025849E-1
3.445654049E0,-9.888052940E0,-3.327940404E-1,-5.889736414E-1
3.447245497E0,-9.888052940E0,-3.256114423E-1,-5.770025849E-1
3.449782665E0,-9.885659218E0,-3.256114423E-1,-5.746083856E-1
3.451337151E0,-9.868899345E0,-3.112462163E-1,-5.841852427E-1
3.453885165E0,-9.873687744E0,-3.184288144E-1,-5.841852427E-1
3.455348036E0,-9.873687744E0,-3.136404157E-1,-5.913678408E-1
3.457988165E0,-9.852140427E0,-2.920926213E-1,-5.698199868E-1
3.459421882E0,-9.837775230E0,-3.040636182E-1,-5.674257874E-1
3.462090357E0,-9.844957352E0,-2.968810201E-1,-5.650315881E-1
3.463645997E0,-9.847352028E0,-2.920926213E-1,-5.626373887E-1
3.466192780E0,-9.832986832E0,-2.849099934E-1,-5.482721925E-1
3.467645613E0,-9.835380554E0,-2.753331959E-1,-5.554547906E-1
3.470124613E0,-9.844957352E0,-2.801215947E-1,-5.554547906E-1
3.471848305E0,-9.837775230E0,-2.944868207E-1,-5.482721925E-1
3.474248036E0,-9.856928825E0,-2.753331959E-1,-5.554547906E-1
3.475926459E0,-9.842563629E0,-2.825157940E-1,-5.602431893E-1
3.478458420E0,-9.821015358E0,-2.920926213E-1,-5.817909837E-1
3.480041997E0,-9.825803757E0,-3.016694188E-1,-6.057330370E-1
3.482615472E0,-9.840168953E0,-2.968810201E-1,-6.153098345E-1
3.484078459E0,-9.842563629E0,-2.849099934E-1,-6.224924326E-1
3.486718049E0,-9.842563629E0,-2.681505978E-1,-6.296750307E-1
3.488207728E0,-9.832986832E0,-2.585737705E-1,-6.320692301E-1
3.490723074E0,-9.842563629E0,-2.513911724E-1,-6.320692301E-1
3.492569343E0,-9.835380554E0,-2.537853718E-1,-6.344634295E-1
3.494829959E0,-9.852140427E0,-2.274491638E-1,-6.440402865E-1
3.496492420E0,-9.854534149E0,-2.394201756E-1,-6.392518282E-1
3.498973574E0,-9.864110947E0,-2.346317619E-1,-6.392518282E-1
3.500477766E0,-9.856928825E0,-2.442085743E-1,-6.320692301E-1
3.503143164E0,-9.852140427E0,-2.537853718E-1,-6.272808313E-1
3.504668074E0,-9.856928825E0,-2.418143749E-1,-6.248866320E-1
3.507245280E0,-9.866505623E0,-2.489969730E-1,-6.248866320E-1
3.508855920E0,-9.866505623E0,-2.513911724E-1,-6.153098345E-1
3.511323087E0,-9.864110947E0,-2.537853718E-1,-6.081272364E-1
3.512953151E0,-9.859322548E0,-2.585737705E-1,-5.985504389E-1
3.515389934E0,-9.871294022E0,-2.442085743E-1,-5.937620401E-1
3.516870959E0,-9.864110947E0,-2.489969730E-1,-5.889736414E-1
3.519492472E0,-9.864110947E0,-2.633621991E-1,-5.793967843E-1
3.521034766E0,-9.866505623E0,-2.633621991E-1,-5.554547906E-1
3.523595087E0,-9.852140427E0,-2.633621991E-1,-5.554547906E-1
3.525280343E0,-9.837775230E0,-2.681505978E-1,-5.434837937E-1
3.527697511E0,-9.849745750E0,-2.633621991E-1,-5.219359994E-1
3.529251997E0,-9.852140427E0,-2.753331959E-1,-5.027823448E-1
3.531826895E0,-9.844957352E0,-2.944868207E-1,-4.908113480E-1
3.533271536E0,-9.847352028E0,-2.849099934E-1,-4.740519226E-1
3.535930241E0,-9.856928825E0,-2.753331959E-1,-4.716577232E-1
3.537394112E0,-9.871294022E0,-2.681505978E-1,-4.812345505E-1
3.540030343E0,-9.890447617E0,-2.873041928E-1,-4.644751251E-1
3.541461497E0,-9.909601212E0,-2.896983922E-1,-4.644751251E-1
3.544136857E0,-9.921571732E0,-2.825157940E-1,-4.620809257E-1
3.545618497E0,-9.916783333E0,-3.064578176E-1,-4.548983276E-1
3.548239934E0,-9.914389610E0,-2.968810201E-1,-4.572925270E-1
3.549716036E0,-9.933543205E0,-3.016694188E-1,-4.548983276E-1
3.552199459E0,-9.940725327E0,-3.160346150E-1,-4.548983276E-1
3.553849497E0,-9.931148529E0,-3.184288144E-1,-4.501099288E-1
3.556348612E0,-9.926360130E0,-3.208230138E-1,-4.477157295E-1
3.557951882E0,-9.931148529E0,-3.136404157E-1,-4.644751251E-1
3.560561357E0,-9.933543205E0,-3.256114423E-1,-4.596867263E-1
3.562018920E0,-9.940725327E0,-3.280056417E-1,-4.525041282E-1
3.564688549E0,-9.943120003E0,-3.399766386E-1,-4.429273009E-1
3.566247459E0,-9.947908401E0,-3.327940404E-1,-4.548983276E-1
3.568790818E0,-9.945513725E0,-3.327940404E-1,-4.644751251E-1
3.570233959E0,-9.950302124E0,-3.471592367E-1,-4.572925270E-1
3.572782151E0,-9.938331604E0,-3.591302633E-1,-4.525041282E-1
3.574354959E0,-9.943120003E0,-3.615244627E-1,-4.668693244E-1
3.576857612E0,-9.950302124E0,-3.447650373E-1,-4.740519226E-1
3.578679574E0,-9.943120003E0,-3.423708379E-1,-4.812345505E-1
3.580940920E0,-9.940725327E0,-3.567360640E-1,-4.764461517E-1
3.582553843E0,-9.931148529E0,-3.567360640E-1,-4.812345505E-1
3.585221587E0,-9.940725327E0,-3.782838583E-1,-4.908113480E-1
3.586764689E0,-9.931148529E0,-3.734954596E-1,-5.051765442E-1
3.589324587E0,-9.921571732E0,-3.758896589E-1,-5.171475410E-1
3.590939305E0,-9.916783333E0,-3.663128614E-1,-5.219359994E-1
3.593402818E0,-9.940725327E0,-3.734954596E-1,-5.219359994E-1
3.594833882E0,-9.935936928E0,-3.663128614E-1,-5.315127969E-1
3.597470818E0,-9.926360130E0,-3.854664862E-1,-5.458779931E-1
3.598953728E0,-9.928754807E0,-3.878606856E-1,-5.482721925E-1
3.601573933E0,-9.926360130E0,-3.806780577E-1,-5.506663918E-1
3.603070805E0,-9.928754807E0,-3.902548850E-1,-5.506663918E-1
3.605676818E0,-9.928754807E0,-3.902548850E-1,-5.506663918E-1
3.607265882E0,-9.928754807E0,-3.902548850E-1,-5.506663918E-1
3.609779741E0,-9.916783333E0,-3.830722570E-1,-5.506663918E-1
3.611412305E0,-9.907206535E0,-3.663128614E-1,-5.458779931E-1
3.613909087E0,-9.916783333E0,-3.567360640E-1,-5.506663918E-1
3.615540343E0,-9.923966408E0,-3.543418646E-1,-5.506663918E-1
3.618012587E0,-9.916783333E0,-3.567360640E-1,-5.578489900E-1
3.619750497E0,-9.909601212E0,-3.471592367E-1,-5.554547906E-1
3.622115510E0,-9.919178009E0,-3.471592367E-1,-5.602431893E-1
3.623757805E0,-9.943120003E0,-3.471592367E-1,-5.554547906E-1
3.626218279E0,-9.931148529E0,-3.447650373E-1,-5.458779931E-1
3.627899651E0,-9.919178009E0,-3.256114423E-1,-5.363011956E-1
3.630320779E0,-9.909601212E0,-3.184288144E-1,-5.410895944E-1
3.632164728E0,-9.919178009E0,-3.256114423E-1,-5.506663918E-1
3.634288382E0,-9.928754807E0,-3.160346150E-1,-5.482721925E-1
3.636157843E0,-9.933543205E0,-3.088520169E-1,-5.434837937E-1
3.638402882E0,-9.928754807E0,-2.920926213E-1,-5.434837937E-1
3.640194882E0,-9.923966408E0,-2.801215947E-1,-5.458779931E-1
3.642619997E0,-9.926360130E0,-2.729389966E-1,-5.434837937E-1
3.644308997E0,-9.928754807E0,-2.633621991E-1,-5.386953950E-1
3.646742702E0,-9.921571732E0,-2.657563984E-1,-5.267243981E-1
3.648210459E0,-9.909601212E0,-2.633621991E-1,-5.219359994E-1
3.650844895E0,-9.909601212E0,-2.777273953E-1,-5.363011956E-1
3.652305459E0,-9.914389610E0,-2.849099934E-1,-5.363011956E-1
3.654869112E0,-9.909601212E0,-2.777273953E-1,-5.386953950E-1
3.656433997E0,-9.914389610E0,-2.753331959E-1,-5.410895944E-1
3.659053959E0,-9.921571732E0,-2.681505978E-1,-5.458779931E-1
3.660555805E0,-9.904812813E0,-2.657563984E-1,-5.458779931E-1
3.663018420E0,-9.900024414E0,-2.705447972E-1,-5.506663918E-1
3.664891882E0,-9.888052940E0,-2.729389966E-1,-5.554547906E-1
3.667267856E0,-9.900024414E0,-2.777273953E-1,-5.626373887E-1
3.668711728E0,-9.902418137E0,-2.753331959E-1,-5.602431893E-1
3.671370587E0,-9.907206535E0,-2.944868207E-1,-5.770025849E-1
3.673009459E0,-9.902418137E0,-2.801215947E-1,-5.746083856E-1
3.675450318E0,-9.902418137E0,-2.681505978E-1,-5.793967843E-1
3.676866266E0,-9.907206535E0,-2.585737705E-1,-5.770025849E-1
3.679517779E0,-9.911994934E0,-2.489969730E-1,-5.817909837E-1
3.681001189E0,-9.919178009E0,-2.466027737E-1,-5.913678408E-1
3.683620971E0,-9.904812813E0,-2.537853718E-1,-5.937620401E-1
3.685060305E0,-9.895236015E0,-2.513911724E-1,-5.985504389E-1
3.687724241E0,-9.890447617E0,-2.561795712E-1,-5.913678408E-1
3.689160035E0,-9.885659218E0,-2.561795712E-1,-5.961562395E-1
3.691827202E0,-9.888052940E0,-2.513911724E-1,-5.961562395E-1
3.693543382E0,-9.883264542E0,-2.585737705E-1,-5.913678408E-1
3.695956587E0,-9.885659218E0,-2.609679997E-1,-5.937620401E-1
3.697550843E0,-9.897629738E0,-2.753331959E-1,-5.913678408E-1
3.700058856E0,-9.909601212E0,-2.705447972E-1,-5.937620401E-1
3.701519228E0,-9.892841339E0,-2.705447972E-1,-5.961562395E-1
3.704161318E0,-9.885659218E0,-2.609679997E-1,-5.985504389E-1
3.705606766E0,-9.890447617E0,-2.873041928E-1,-5.889736414E-1
3.708263318E0,-9.888052940E0,-2.873041928E-1,-5.841852427E-1
3.709726459E0,-9.888052940E0,-2.681505978E-1,-5.889736414E-1
3.712365279E0,-9.907206535E0,-2.609679997E-1,-5.961562395E-1
3.713824189E0,-9.911994934E0,-2.753331959E-1,-5.817909837E-1
3.716329497E0,-9.911994934E0,-2.825157940E-1,-5.841852427E-1
3.717921151E0,-9.909601212E0,-2.825157940E-1,-5.937620401E-1
3.720490459E0,-9.921571732E0,-2.968810201E-1,-6.009446383E-1
3.722146766E0,-9.916783333E0,-2.920926213E-1,-6.057330370E-1
3.724683279E0,-9.914389610E0,-2.920926213E-1,-6.081272364E-1
3.726192728E0,-9.914389610E0,-3.208230138E-1,-5.985504389E-1
3.728785241E0,-9.911994934E0,-3.208230138E-1,-5.937620401E-1
3.730398420E0,-9.900024414E0,-3.184288144E-1,-5.889736414E-1
3.732887317E0,-9.907206535E0,-3.256114423E-1,-5.746083856E-1
3.734330997E0,-9.902418137E0,-3.280056417E-1,-5.793967843E-1
3.736828035E0,-9.892841339E0,-3.303998411E-1,-5.650315881E-1
3.738429689E0,-9.902418137E0,-3.327940404E-1,-5.554547906E-1
3.740938882E0,-9.888052940E0,-3.303998411E-1,-5.578489900E-1
3.742639112E0,-9.890447617E0,-3.303998411E-1,-5.554547906E-1
3.745131728E0,-9.890447617E0,-3.280056417E-1,-5.554547906E-1
3.746659343E0,-9.880870819E0,-2.992752194E-1,-5.626373887E-1
3.749311779E0,-9.880870819E0,-2.968810201E-1,-5.626373887E-1
3.750761920E0,-9.864110947E0,-3.160346150E-1,-5.458779931E-1
3.753413817E0,-9.878476143E0,-3.088520169E-1,-5.386953950E-1
3.755042420E0,-9.866505623E0,-3.040636182E-1,-5.386953950E-1
3.757491433E0,-9.861717224E0,-3.088520169E-1,-5.315127969E-1
3.759065112E0,-9.880870819E0,-3.232172430E-1,-5.243301988E-1
3.761558471E0,-9.871294022E0,-3.232172430E-1,-5.195417404E-1
3.763159574E0,-9.864110947E0,-3.112462163E-1,-5.147533417E-1
3.765661202E0,-9.878476143E0,-3.016694188E-1,-5.051765442E-1
3.767176958E0,-9.883264542E0,-2.944868207E-1,-5.027823448E-1
3.769764240E0,-9.888052940E0,-3.112462163E-1,-4.955997467E-1
3.771190074E0,-9.878476143E0,-3.112462163E-1,-4.955997467E-1
3.773868394E0,-9.883264542E0,-3.016694188E-1,-4.955997467E-1
3.775404151E0,-9.888052940E0,-2.992752194E-1,-4.908113480E-1
3.777997433E0,-9.878476143E0,-3.112462163E-1,-4.908113480E-1
3.779448228E0,-9.878476143E0,-2.944868207E-1,-5.051765442E-1
3.782100202E0,-9.866505623E0,-2.968810201E-1,-4.932055473E-1
3.783683151E0,-9.861717224E0,-2.896983922E-1,-4.836287498E-1
3.786203471E0,-9.873687744E0,-2.873041928E-1,-4.979939461E-1
3.787647151E0,-9.883264542E0,-2.801215947E-1,-5.003881454E-1
3.790306971E0,-9.892841339E0,-2.944868207E-1,-5.027823448E-1
3.791745651E0,-9.902418137E0,-2.657563984E-1,-5.099649429E-1
3.794410625E0,-9.900024414E0,-2.609679997E-1,-5.171475410E-1
3.795845266E0,-9.880870819E0,-2.729389966E-1,-5.267243981E-1
3.798337843E0,-9.885659218E0,-2.537853718E-1,-5.219359994E-1
3.799956689E0,-9.876082420E0,-2.585737705E-1,-5.291185975E-1
3.802629856E0,-9.883264542E0,-2.609679997E-1,-5.363011956E-1
3.804102151E0,-9.883264542E0,-2.489969730E-1,-5.363011956E-1
3.806732163E0,-9.902418137E0,-2.466027737E-1,-5.171475410E-1
3.808521497E0,-9.907206535E0,-2.442085743E-1,-5.243301988E-1
3.810791535E0,-9.911994934E0,-2.202665508E-1,-5.291185975E-1
3.812472228E0,-9.921571732E0,-2.178723514E-1,-5.434837937E-1
3.814962471E0,-9.928754807E0,-2.130839527E-1,-5.339069963E-1
3.816427651E0,-9.931148529E0,-2.082955539E-1,-5.267243981E-1
3.818912574E0,-9.923966408E0,-1.915361285E-1,-5.267243981E-1
3.820526189E0,-9.914389610E0,-1.891419291E-1,-5.147533417E-1
3.823004574E0,-9.923966408E0,-1.915361285E-1,-5.075707436E-1
3.824668343E0,-9.935936928E0,-1.843535304E-1,-5.051765442E-1
3.827243843E0,-9.931148529E0,-1.747767180E-1,-5.051765442E-1
3.828906151E0,-9.919178009E0,-1.747767180E-1,-4.979939461E-1
3.831392471E0,-9.926360130E0,-1.651999205E-1,-4.860229492E-1
3.832827651E0,-9.938331604E0,-1.604115069E-1,-4.788403511E-1
3.835495586E0,-9.931148529E0,-1.532289088E-1,-4.836287498E-1
3.837173728E0,-9.926360130E0,-1.388636976E-1,-4.812345505E-1
3.839575279E0,-9.945513725E0,-1.340752989E-1,-4.884171486E-1
3.841082958E0,-9.955090523E0,-1.316810995E-1,-4.932055473E-1
3.843642740E0,-9.947908401E0,-1.292868853E-1,-4.788403511E-1
3.845345574E0,-9.955090523E0,-1.364694983E-1,-4.860229492E-1
3.847745971E0,-9.967061996E0,-1.388636976E-1,-4.836287498E-1
3.849262189E0,-9.962273598E0,-1.460463107E-1,-4.764461517E-1
3.851850009E0,-9.947908401E0,-1.508347094E-1,-4.788403511E-1
3.853373843E0,-9.940725327E0,-1.580173075E-1,-4.788403511E-1
3.855953471E0,-9.938331604E0,-1.508347094E-1,-4.812345505E-1
3.857507651E0,-9.935936928E0,-1.675941199E-1,-4.692635238E-1
3.860083548E0,-9.909601212E0,-1.699883193E-1,-4.740519226E-1
3.861552420E0,-9.911994934E0,-1.628057212E-1,-4.692635238E-1
3.864187548E0,-9.916783333E0,-1.675941199E-1,-4.572925270E-1
3.865711574E0,-9.916783333E0,-1.867477298E-1,-4.620809257E-1
3.868291432E0,-9.907206535E0,-1.963245422E-1,-4.620809257E-1
3.869760881E0,-9.885659218E0,-1.843535304E-1,-4.644751251E-1
3.872395894E0,-9.878476143E0,-1.819593310E-1,-4.692635238E-1
3.873846228E0,-9.873687744E0,-1.867477298E-1,-4.668693244E-1
3.876499278E0,-9.871294022E0,-1.987187415E-1,-4.572925270E-1
3.878025228E0,-9.871294022E0,-1.939303428E-1,-4.620809257E-1
3.880468958E0,-9.873687744E0,-1.939303428E-1,-4.525041282E-1
3.882084497E0,-9.871294022E0,-2.059013397E-1,-4.501099288E-1
3.884562112E0,-9.866505623E0,-2.202665508E-1,-4.453215301E-1
3.886264151E0,-9.861717224E0,-2.202665508E-1,-4.405331016E-1
3.888800766E0,-9.849745750E0,-2.202665508E-1,-4.381389022E-1
3.890287766E0,-9.825803757E0,-2.250549644E-1,-4.285621047E-1
3.892924048E0,-9.821015358E0,-2.370259613E-1,-4.261679053E-1
3.894400728E0,-9.823410034E0,-2.394201756E-1,-4.213795066E-1
3.897027663E0,-9.813833237E0,-2.609679997E-1,-4.165911078E-1
3.899080894E0,-9.813833237E0,-2.585737705E-1,-4.261679053E-1
3.901006074E0,-9.818621635E0,-2.513911724E-1,-4.237737060E-1
3.902718728E0,-9.801861763E0,-2.489969730E-1,-4.237737060E-1
3.905096997E0,-9.794678688E0,-2.394201756E-1,-4.357447028E-1
3.906727574E0,-9.785101891E0,-2.442085743E-1,-4.405331016E-1
3.909278689E0,-9.782708168E0,-2.657563984E-1,-4.381389022E-1
3.910832728E0,-9.765948296E0,-2.657563984E-1,-4.405331016E-1
3.913456663E0,-9.761159897E0,-2.873041928E-1,-4.429273009E-1
3.914870689E0,-9.765948296E0,-2.849099934E-1,-4.429273009E-1
3.917559547E0,-9.770736694E0,-2.801215947E-1,-4.405331016E-1
3.919314843E0,-9.770736694E0,-2.777273953E-1,-4.525041282E-1
3.921637894E0,-9.768342972E0,-2.705447972E-1,-4.453215301E-1
3.923190305E0,-9.768342972E0,-2.729389966E-1,-4.237737060E-1
3.925705932E0,-9.782708168E0,-2.681505978E-1,-4.285621047E-1
3.927225074E0,-9.794678688E0,-2.681505978E-1,-4.285621047E-1
3.929809855E0,-9.794678688E0,-2.489969730E-1,-4.285621047E-1
3.931325766E0,-9.806650162E0,-2.466027737E-1,-4.357447028E-1
3.933911701E0,-9.811438560E0,-2.466027737E-1,-4.309563041E-1
3.935343689E0,-9.804255486E0,-2.370259613E-1,-4.213795066E-1
3.938014663E0,-9.816226959E0,-2.226607651E-1,-4.285621047E-1
3.939723958E0,-9.804255486E0,-2.130839527E-1,-4.357447028E-1
3.942143317E0,-9.811438560E0,-2.082955539E-1,-4.333505034E-1
3.943703151E0,-9.835380554E0,-2.035071403E-1,-4.285621047E-1
3.946245355E0,-9.852140427E0,-1.819593310E-1,-4.141969085E-1
3.947905881E0,-9.847352028E0,-1.675941199E-1,-4.046200812E-1
3.950347201E0,-9.859322548E0,-1.771709323E-1,-4.022258818E-1
3.951784497E0,-9.871294022E0,-1.939303428E-1,-4.046200812E-1
3.954449740E0,-9.861717224E0,-1.819593310E-1,-4.046200812E-1
3.955925612E0,-9.876082420E0,-1.604115069E-1,-4.094084799E-1
3.958551778E0,-9.885659218E0,-1.508347094E-1,-4.118026793E-1
3.960074189E0,-9.878476143E0,-1.460463107E-1,-4.118026793E-1
3.962517612E0,-9.866505623E0,-1.604115069E-1,-4.213795066E-1
3.964120689E0,-9.878476143E0,-1.364694983E-1,-4.189853072E-1
3.966617074E0,-9.871294022E0,-1.221042871E-1,-4.189853072E-1
3.968260035E0,-9.871294022E0,-1.221042871E-1,-4.237737060E-1
3.970815035E0,-9.885659218E0,-1.292868853E-1,-4.453215301E-1
3.972342035E0,-9.892841339E0,-1.436520964E-1,-4.525041282E-1
3.974974932E0,-9.892841339E0,-1.460463107E-1,-4.572925270E-1
3.976938458E0,-9.895236015E0,-1.460463107E-1,-4.596867263E-1
3.979077740E0,-9.907206535E0,-1.580173075E-1,-4.716577232E-1
3.980544574E0,-9.902418137E0,-1.651999205E-1,-4.764461517E-1
3.983041881E0,-9.885659218E0,-1.699883193E-1,-4.932055473E-1
3.984690151E0,-9.890447617E0,-1.795651317E-1,-4.932055473E-1
3.987131958E0,-9.890447617E0,-1.891419291E-1,-4.860229492E-1
3.988770574E0,-9.892841339E0,-2.011129409E-1,-4.955997467E-1
3.991225612E0,-9.892841339E0,-2.082955539E-1,-4.955997467E-1
3.992869574E0,-9.873687744E0,-2.059013397E-1,-4.788403511E-1
3.995504432E0,-9.873687744E0,-2.226607651E-1,-4.860229492E-1
3.997065343E0,-9.880870819E0,-2.466027737E-1,-4.932055473E-1
3.999606509E0,-9.866505623E0,-2.489969730E-1,-4.908113480E-1
4.001223843E0,-9.856928825E0,-2.513911724E-1,-4.860229492E-1
4.003683778E0,-9.861717224E0,-2.681505978E-1,-4.764461517E-1
4.005101497E0,-9.876082420E0,-2.825157940E-1,-4.692635238E-1
4.007751547E0,-9.883264542E0,-2.944868207E-1,-4.692635238E-1
4.009525458E0,-9.868899345E0,-3.136404157E-1,-4.716577232E-1
4.011853778E0,-9.854534149E0,-3.303998411E-1,-4.572925270E-1
4.013308920E0,-9.852140427E0,-3.399766386E-1,-4.548983276E-1
4.015956509E0,-9.864110947E0,-3.423708379E-1,-4.572925270E-1
4.017591228E0,-9.861717224E0,-3.423708379E-1,-4.525041282E-1
4.020058586E0,-9.868899345E0,-3.543418646E-1,-4.525041282E-1
4.021603458E0,-9.873687744E0,-3.734954596E-1,-4.477157295E-1
4.024187201E0,-9.868899345E0,-3.830722570E-1,-4.429273009E-1
4.025637535E0,-9.844957352E0,-3.806780577E-1,-4.405331016E-1
4.028289624E0,-9.849745750E0,-3.854664862E-1,-4.405331016E-1
4.029801497E0,-9.849745750E0,-4.070142806E-1,-4.285621047E-1
4.032391662E0,-9.832986832E0,-4.213795066E-1,-4.189853072E-1
4.033838074E0,-9.828198433E0,-4.189853072E-1,-4.118026793E-1
4.036494162E0,-9.823410034E0,-4.309563041E-1,-4.213795066E-1
4.038032074E0,-9.806650162E0,-4.357447028E-1,-4.309563041E-1
4.040596509E0,-9.813833237E0,-4.285621047E-1,-4.285621047E-1
4.042214689E0,-9.801861763E0,-4.309563041E-1,-4.213795066E-1
4.044573074E0,-9.823410034E0,-4.261679053E-1,-4.309563041E-1
4.046164535E0,-9.823410034E0,-4.357447028E-1,-4.453215301E-1
4.048662574E0,-9.825803757E0,-4.525041282E-1,-4.525041282E-1
